T,ACCX,ACCY,ACCZ,ROTX,ROTY,ROTZ
17838062,6.6,-6.52,0.87,-0.11,-0.08,0.12
17838086,6.44,-6.64,0.6,-0.17,-0.1,0.17
17838111,6.27,-6.53,0.61,-0.18,-0.12,0.17
17838136,6.08,-6.57,0.53,-0.17,-0.1,0.17
17838161,6.27,-6.83,0.47,-0.21,-0.08,0.21
17838186,6.44,-7.07,0.48,-0.19,-0.11,0.24
17838211,6.45,-7.36,0.47,-0.17,-0.14,0.26
17838236,6.34,-7.53,0.53,-0.17,-0.14,0.25
17838261,6.14,-7.4,0.57,-0.16,-0.12,0.22
17838290,5.85,-7.17,0.41,-0.14,-0.1,0.19
17838311,5.84,-6.97,0.35,-0.1,-0.08,0.13
17838336,6.25,-7.29,0.45,-0.07,-0.07,0.13
17838361,6.48,-7.38,0.28,-0.07,-0.06,0.13
17838387,6.32,-7.19,0.37,-0.03,-0.05,0.09
17838412,6.35,-7.16,0.57,0.01,-0.02,0.06
17838436,6.57,-7.21,0.7,0.04,-0.01,0.04
17838461,6.88,-7.4,0.91,0.08,0.02,0.03
17838486,6.79,-7.42,0.95,0.09,0.01,0.03
17838511,6.8,-7.49,0.99,0.09,0.02,0.03
17838537,7.03,-7.36,1,0.04,-0.01,0
17838561,6.97,-7.16,1.27,0.05,-0.02,-0.03
17838586,7.38,-7.4,1.27,0.06,0,-0.04
17838611,7.52,-7.47,1.03,0.06,-0.02,-0.03
17838637,7.04,-6.94,1.02,0.03,-0.06,-0.05
17838662,6.57,-6.54,1,0.01,-0.07,-0.06
17838800,7.21,-7.57,0.7,-0.03,-0.03,0.04
17838824,8.14,-8.58,0.71,-0.04,0,0.12
17838849,8.06,-9.14,0.38,-0.04,-0.02,0.13
17838874,7.3,-8.96,0.2,-0.07,-0.04,0.1
17838900,7.28,-9.22,0.23,-0.06,-0.03,0.09
17838924,7.83,-9.53,0.23,-0.06,-0.03,0.12
17838949,7.6,-9.39,0.15,-0.07,-0.03,0.14
17838974,6.82,-8.96,-0.01,-0.08,-0.05,0.14
17839000,6.42,-8.72,-0.02,-0.08,-0.04,0.16
17839024,6.85,-9.13,0.01,-0.07,-0.02,0.19
17839049,7.63,-9.81,0,-0.05,-0.02,0.2
17839075,7.46,-10.03,-0.15,-0.08,-0.02,0.21
17839100,6.51,-9.42,-0.22,-0.03,-0.03,0.14
17839124,6.26,-9.02,0.21,0.05,-0.02,0.08
17839149,6.71,-9.01,0.37,0.05,0.01,0.05
17839174,6.71,-8.6,0.37,0.08,0.01,0
17839200,6.34,-8.44,0.21,0.12,0.01,-0.02
17839224,6.01,-7.74,0,0.13,-0.03,-0.08
17839250,5.92,-7.18,0.32,0.14,-0.02,-0.12
17839275,6.21,-7.12,0.41,0.17,0,-0.12
17839300,6.06,-6.86,0.14,0.2,0.01,-0.12
17839324,5.91,-6.78,0.07,0.18,-0.01,-0.11
17839349,6.21,-6.75,0.09,0.15,-0.05,-0.09
17839375,6.22,-6.39,0.18,0.13,-0.06,-0.1
17839400,6.35,-6.31,0.4,0.12,-0.03,-0.07
17839424,6.72,-6.79,0.22,0.09,-0.03,-0.02
17839451,7.02,-6.88,0.09,0.03,-0.08,0.02
17839475,6.97,-6.84,0.46,0.01,-0.1,0.02
17839500,7.26,-7.31,0.61,0.03,-0.08,0.07
17839525,7.53,-7.72,0.34,0.01,-0.08,0.13
17839550,7.03,-7.76,0.31,-0.06,-0.07,0.15
17839576,7.31,-8.1,0.36,-0.07,-0.09,0.19
17839601,7.7,-8.63,0.36,-0.03,-0.11,0.25
17839625,7.77,-8.91,0.72,-0.03,-0.11,0.27
17839650,7.53,-9.05,0.69,-0.05,-0.1,0.26
17839675,7.47,-9.06,0.56,-0.09,-0.08,0.2
17839701,7.57,-8.77,0.77,-0.04,-0.09,0.17
17839842,8.21,-8.78,1.01,0.1,0.02,0.01
17839866,7.92,-8.63,1.07,0.11,0.02,0
17839892,7.1,-7.94,0.98,0.09,0.02,0.02
17839917,7.18,-7.85,0.9,0.08,0.01,-0.04
17839947,7.18,-7.48,1.09,0.13,0.02,-0.05
17839969,7.4,-7.64,1.2,0.14,0.03,-0.05
17839994,7.25,-7.64,0.91,0.12,0.01,-0.02
17840020,6.63,-7.12,0.86,0.08,0,-0.02
17840045,6.56,-6.94,0.87,0.06,0.01,-0.06
17840069,7.11,-7,0.91,0.12,0.02,-0.07
17840094,6.95,-7.09,0.96,0.13,0.01,-0.03
17840119,6.79,-7.21,0.91,0.09,0.01,-0.02
17840144,6.67,-6.98,0.95,0.08,-0.02,-0.04
17840169,6.89,-6.94,1.04,0.1,0,-0.05
17840194,6.98,-7.19,1.01,0.12,0.01,-0.03
17840219,6.84,-7.34,0.87,0.1,-0.02,-0.01
17840245,6.4,-7,0.79,0.06,-0.04,-0.03
17840269,6.35,-6.72,0.88,0.06,-0.01,-0.06
17840294,6.94,-6.94,0.91,0.09,-0.01,-0.06
17840319,6.88,-7.13,0.78,0.1,-0.02,-0.03
17840344,6.37,-6.88,0.68,0.06,-0.02,-0.04
17840370,6.29,-6.64,0.77,0.06,0,-0.08
17840394,6.57,-6.74,0.63,0.08,0.02,-0.07
17840419,6.67,-6.75,0.74,0.08,0,-0.05
17840444,6.5,-6.84,0.63,0.07,-0.02,-0.03
17840469,6.31,-6.73,0.6,0.06,-0.02,-0.05
17840494,6.66,-6.76,0.78,0.05,0,-0.05
17840519,6.82,-6.94,0.71,0.05,-0.01,-0.02
17840544,6.51,-6.99,0.72,0.05,-0.01,-0.02
17840570,6.6,-6.96,0.67,0.03,-0.02,-0.03
17840595,6.8,-7.04,0.7,0.02,-0.02,-0.02
17840619,6.74,-7.05,0.71,0.03,-0.02,0
17840644,6.66,-7.14,0.78,0.04,-0.02,0
17840669,7.01,-7.48,0.7,0.02,-0.02,0.03
17840694,7.03,-7.55,0.62,-0.01,-0.04,0.03
17840719,6.61,-7.13,0.81,0,-0.05,0.01
17840745,6.75,-7.23,0.79,0.02,-0.02,0.02
17840874,6.79,-7.31,0.76,0.01,-0.01,0.02
17840899,7.03,-7.38,0.7,0.02,-0.03,0.03
17840923,6.8,-7.36,0.62,0.02,-0.03,0.02
17840949,6.73,-7.36,0.7,0.01,-0.02,0.02
17840973,7.01,-7.39,0.8,0.02,-0.01,0.03
17840998,6.95,-7.39,0.63,0.02,-0.02,0.04
17841023,6.64,-7.18,0.67,-0.01,-0.03,0.03
17841049,6.86,-7.17,0.69,-0.01,-0.03,0.03
17841074,7.21,-7.46,0.64,0.01,-0.02,0.06
17841098,7.16,-7.61,0.66,0,-0.04,0.07
17841123,7.08,-7.57,0.64,-0.01,-0.05,0.07
17841148,6.97,-7.43,0.65,-0.01,-0.05,0.07
17841173,6.9,-7.42,0.75,-0.01,-0.04,0.07
17841199,7.04,-7.41,0.59,-0.02,-0.05,0.08
17841224,7.1,-7.6,0.49,-0.04,-0.08,0.09
17841248,6.86,-7.49,0.6,-0.04,-0.08,0.07
17841273,6.97,-7.32,0.63,-0.03,-0.07,0.07
17841299,7.23,-7.55,0.57,-0.03,-0.06,0.08
17841324,7.1,-7.56,0.54,-0.02,-0.07,0.1
17841348,7.19,-7.52,0.55,-0.03,-0.08,0.08
17841373,7.1,-7.44,0.64,-0.02,-0.06,0.08
17841398,7.1,-7.31,0.57,0,-0.04,0.07
17841423,7.27,-7.39,0.57,-0.01,-0.05,0.08
17841448,7.21,-7.42,0.62,-0.02,-0.05,0.08
17841473,7.19,-7.36,0.65,0,-0.04,0.08
17841499,7.31,-7.3,0.7,0,-0.04,0.07
17841524,7.38,-7.33,0.68,-0.02,-0.04,0.07
17841548,7.21,-7.2,0.77,0,-0.04,0.07
17841573,7.29,-7.14,0.69,0,-0.02,0.07
17841598,7.36,-7.2,0.62,-0.01,-0.03,0.09
17841623,7.23,-7.07,0.63,-0.02,-0.05,0.1
17841648,7.18,-6.97,0.76,-0.01,-0.05,0.09
17841673,7.32,-7.15,0.62,-0.01,-0.03,0.1
17841809,6.82,-6.75,0.51,-0.01,-0.02,0.09
17841834,6.84,-6.71,0.42,0,-0.03,0.08
17841860,6.87,-6.69,0.43,0.01,-0.02,0.07
17841885,6.86,-6.63,0.47,0.02,-0.01,0.07
17841910,6.84,-6.62,0.42,0.01,-0.01,0.07
17841934,6.78,-6.64,0.29,0.01,-0.01,0.06
17841959,6.61,-6.33,0.32,0.02,-0.01,0.05
17841984,6.76,-6.33,0.47,0.05,0,0.05
17842010,6.85,-6.48,0.42,0.05,0.01,0.06
17842034,6.77,-6.47,0.35,0.02,0.01,0.05
17842059,6.72,-6.36,0.38,0.03,-0.01,0.04
17842084,6.77,-6.33,0.39,0.05,0.01,0.03
17842109,6.71,-6.26,0.51,0.05,0.01,0.03
17842134,6.63,-6.25,0.47,0.05,0.01,0.05
17842159,6.62,-6.34,0.31,0.05,0.01,0.06
17842185,6.85,-6.41,0.35,0.05,0,0.04
17842210,6.78,-6.38,0.44,0.06,0,0.04
17842234,6.55,-6.43,0.4,0.05,0.03,0.04
17842260,6.72,-6.51,0.3,0.04,0.02,0.05
17842285,6.7,-6.4,0.34,0.04,0,0.04
17842309,6.59,-6.43,0.32,0.04,0.02,0.04
17842335,6.65,-6.41,0.29,0.05,0.02,0.03
17842360,6.67,-6.53,0.24,0.06,0.01,0.04
17842384,6.53,-6.51,0.25,0.05,0.01,0.03
17842409,6.72,-6.55,0.28,0.05,0.01,0.03
17842434,6.52,-6.38,0.28,0.06,0,0.02
17842459,6.33,-6.31,0.27,0.05,0.03,0.01
17842485,6.38,-6.22,0.24,0.07,0.02,0.01
17842510,6.31,-6.14,0.15,0.07,0.01,0.01
17842534,6.09,-5.98,0.2,0.05,0.02,-0.01
17842559,6.1,-5.85,0.11,0.06,0.01,-0.01
17842584,6.18,-5.92,0.1,0.07,0.01,0
17842609,6.37,-6.04,0.17,0.06,0.01,0
17842635,6.45,-6.13,0.05,0.06,0,0.02
17842660,6.2,-5.95,0.07,0.06,-0.01,0.02
17842684,6.18,-5.85,0.18,0.06,0.01,0.01
17842709,6.49,-6.06,0.08,0.07,0.01,0.02
17842845,6.35,-6.28,0.15,0.03,-0.02,0.07
17842869,6.42,-6.28,0.13,0.01,-0.02,0.07
17842894,6.41,-6.14,0.21,0,-0.03,0.06
17842919,6.37,-6.26,0.23,0.02,-0.02,0.06
17842944,6.57,-6.45,0.11,0,-0.01,0.07
17842969,6.58,-6.38,0.2,0,-0.04,0.07
17842994,6.5,-6.41,0.26,0.02,-0.03,0.07
17843019,6.43,-6.36,0.26,0.01,-0.01,0.07
17843044,6.62,-6.53,0.16,-0.02,-0.02,0.07
17843069,6.59,-6.55,0.1,-0.01,-0.04,0.08
17843095,6.58,-6.52,0.28,0,-0.03,0.06
17843120,6.71,-6.49,0.21,0.01,-0.03,0.05
17843145,6.57,-6.49,0.27,0.01,-0.01,0.06
17843169,6.74,-6.7,0.28,0.01,0,0.07
17843194,6.99,-6.77,0.19,0,-0.02,0.07
17843219,6.72,-6.63,0.29,0,-0.03,0.04
17843245,6.77,-6.63,0.44,0.03,0,0.04
17843273,6.95,-6.77,0.32,0.03,0,0.05
17843295,7.02,-6.81,0.27,0.01,-0.01,0.05
17843319,6.79,-6.59,0.43,0.02,-0.01,0.02
17843344,6.97,-6.56,0.35,0.03,0,0.03
17843369,6.82,-6.57,0.27,0.04,0.01,0.04
17843394,6.74,-6.4,0.31,0.04,0,0.02
17843420,6.98,-6.43,0.39,0.03,0,0.02
17843445,6.83,-6.48,0.3,0.03,0.02,0.03
17843470,6.57,-6.35,0.24,0.03,0.02,0.03
17843494,6.66,-6.19,0.28,0.05,0.01,0.03
17843519,6.66,-6.19,0.27,0.06,0.02,0.03
17843545,6.41,-6.19,0.23,0.03,0,0.03
17843569,6.56,-6.15,0.16,0.02,-0.02,0.02
17843594,6.42,-5.94,0.25,0.04,-0.01,0.01
17843623,6.33,-5.98,0.2,0.04,0.01,0.01
17843647,6.5,-6.01,0.08,0.03,-0.01,0.01
17843672,6.39,-5.97,0.16,0.02,-0.01,0.01
17843698,6.41,-5.96,0.14,0.03,0,0
17843723,6.3,-5.9,0.1,0.04,0.01,0
17843747,6.2,-5.83,0.06,0.03,0,0.01
17843882,6.03,-5.57,-0.01,0.03,0,0.01
17843907,6.16,-5.71,-0.08,0.01,-0.01,0.03
17843931,6.18,-5.87,-0.06,0,-0.03,0.05
17843956,6.16,-5.82,-0.02,-0.01,-0.05,0.04
17843982,6.2,-5.89,0.01,0.01,-0.02,0.04
17844006,6.3,-6.01,-0.08,0.03,0.01,0.06
17844031,6.21,-5.99,-0.01,0.02,-0.02,0.08
17844056,6.21,-6.03,0.04,0,-0.03,0.07
17844082,6.37,-6.14,-0.02,0,-0.02,0.06
17844106,6.33,-6.16,0.08,0,-0.04,0.06
17844131,6.33,-6.23,0.11,0.02,-0.03,0.07
17844156,6.55,-6.32,0.01,0.01,-0.03,0.07
17844181,6.42,-6.11,0.17,0,-0.04,0.05
17844206,6.39,-6.02,0.18,0.01,-0.02,0.04
17844232,6.6,-6.09,0.11,0.03,0,0.04
17844256,6.68,-6.13,0.15,0.03,-0.02,0.05
17844281,6.54,-6.1,0.29,0.03,-0.02,0.05
17844306,6.69,-6.16,0.26,0.04,0,0.04
17844331,6.81,-6.27,0.24,0.05,0,0.06
17844359,6.58,-6.16,0.32,0.02,-0.01,0.07
17844384,6.79,-6.31,0.29,0.03,-0.01,0.08
17844409,6.71,-6.28,0.31,0.03,-0.02,0.09
17844435,6.65,-6.33,0.37,0.01,-0.02,0.1
17844460,6.63,-6.45,0.25,-0.01,-0.03,0.11
17844484,6.67,-6.4,0.32,-0.01,-0.04,0.1
17844510,6.83,-6.54,0.34,0.01,-0.03,0.1
17844534,7.11,-6.98,0.2,0,-0.02,0.13
17844559,6.94,-6.96,0.1,-0.03,-0.06,0.14
17844584,6.62,-6.61,0.27,-0.04,-0.06,0.1
17844610,7.08,-6.91,0.21,-0.01,-0.03,0.09
17844635,7.29,-7.23,0.16,0.01,-0.05,0.12
17844660,7.21,-7.39,0.26,-0.02,-0.07,0.12
17844685,7.34,-7.47,0.26,-0.02,-0.06,0.08
17844820,7.31,-7.26,0.42,0.04,-0.01,0.02
17844844,7.48,-7.42,0.31,0.06,0.01,0.02
17844869,7.2,-7.28,0.26,0.04,0,0.03
17844895,7.15,-7.09,0.42,0.04,0,0.02
17844920,7.42,-7.21,0.37,0.06,-0.01,0.03
17844945,7.52,-7.44,0.31,0.04,-0.01,0.05
17844969,7.07,-7.21,0.38,0.03,-0.03,0.04
17844994,7.18,-7.14,0.33,0.03,-0.02,0.04
17845019,7.46,-7.35,0.29,0.05,0,0.03
17845045,7.35,-7.39,0.38,0.05,-0.03,0.04
17845070,7.24,-7.37,0.51,0.05,-0.02,0.04
17845096,7.36,-7.37,0.31,0.05,0.01,0.03
17845120,7.32,-7.22,0.35,0.05,-0.01,0.02
17845145,7.26,-7.24,0.44,0.06,-0.02,0.02
17845170,7.12,-7.17,0.39,0.05,-0.01,0.03
17845195,7.21,-7.17,0.33,0.04,-0.02,0.04
17845220,7.15,-7.03,0.25,0.04,-0.03,0.04
17845245,7.18,-7.01,0.32,0.05,-0.02,0.04
17845270,6.96,-6.91,0.38,0.06,-0.03,0.04
17845295,6.92,-6.98,0.26,0.04,-0.02,0.05
17845320,6.85,-6.75,0.24,0.05,-0.01,0.04
17845347,7.05,-6.71,0.28,0.05,-0.03,0.03
17845371,6.91,-6.76,0.2,0.05,-0.02,0.04
17845396,6.69,-6.58,0.24,0.04,-0.01,0.02
17845421,6.83,-6.45,0.28,0.05,-0.02,0.01
17845446,6.81,-6.44,0.21,0.06,-0.01,0.02
17845471,6.78,-6.39,0.21,0.03,-0.02,0.02
17845496,6.7,-6.25,0.34,0.02,-0.03,0.02
17845522,6.77,-6.23,0.3,0.04,-0.02,0.02
17845546,6.98,-6.4,0.25,0.03,0,0.03
17845571,6.96,-6.34,0.21,0.01,-0.02,0.05
17845596,6.79,-6.26,0.26,0.03,-0.04,0.04
17845621,6.71,-6.18,0.46,0.03,-0.03,0.04
17845646,7.07,-6.43,0.44,0,-0.02,0.08
17845671,7.12,-6.81,0.19,0,-0.03,0.11
17845697,6.92,-6.64,0.25,-0.03,-0.07,0.1
17845722,7.03,-6.6,0.43,-0.03,-0.06,0.08
17845856,7.49,-7.41,0.25,-0.05,-0.04,0.12
17845880,7.46,-7.46,0.18,-0.05,-0.05,0.12
17845905,7.62,-7.61,0.08,-0.06,-0.05,0.13
17845930,7.65,-7.71,0.18,-0.05,-0.05,0.12
17845955,7.64,-7.61,0.2,-0.05,-0.05,0.11
17845981,7.95,-7.84,0.16,-0.04,-0.03,0.11
17846005,7.97,-8.09,0.17,-0.03,-0.02,0.11
17846030,7.85,-7.98,0.11,-0.04,-0.04,0.09
17846055,7.9,-8,0.13,-0.03,-0.04,0.08
17846082,7.95,-8.09,0.18,-0.02,-0.02,0.06
17846106,7.66,-7.85,0.1,-0.01,-0.01,0.06
17846131,7.57,-7.83,-0.07,-0.01,-0.01,0.06
17846155,7.65,-7.86,-0.11,-0.02,-0.02,0.05
17846181,7.45,-7.5,-0.01,0,-0.02,0.02
17846206,7.49,-7.69,-0.06,0.02,0.02,0.03
17846230,7.59,-7.88,-0.42,0.01,0,0.03
17846255,7.34,-7.49,-0.28,0.01,-0.03,0
17846281,7.31,-7.42,-0.14,0.05,0.01,-0.01
17846306,7.13,-7.46,-0.34,0.04,0.03,0
17846331,6.93,-7.03,-0.38,0.04,0,-0.01
17846356,6.7,-6.75,-0.21,0.07,0.02,-0.03
17846380,6.51,-6.69,-0.33,0.08,0.04,-0.02
17846405,6.41,-6.52,-0.52,0.05,0.02,-0.01
17846430,6.41,-6.39,-0.48,0.04,0.01,-0.01
17846455,6.38,-6.35,-0.39,0.05,0.01,0
17846480,6.61,-6.5,-0.48,0.04,0.01,0.01
17846506,6.63,-6.53,-0.51,0.04,0,0.02
17846531,6.5,-6.37,-0.36,0.04,0,0.01
17846555,6.74,-6.59,-0.31,0.05,0.01,0.03
17846580,6.95,-6.82,-0.41,0.04,-0.01,0.04
17846605,6.71,-6.68,-0.32,0.04,-0.02,0.03
17846634,6.63,-6.68,-0.2,0.05,0,0.04
17846655,7.2,-7.09,-0.38,0.05,0,0.06
17846680,7.06,-6.93,-0.25,0.01,-0.04,0.05
17846706,6.91,-6.79,-0.08,0.01,-0.04,0.03
17846731,7.19,-7.11,-0.16,0.04,-0.02,0.05
17846755,7.18,-7.05,-0.28,0.02,-0.05,0.05
17846888,7.27,-7.11,-0.31,0.04,-0.03,0.08
17846912,6.85,-6.89,-0.29,0,-0.05,0.07
17846937,6.98,-6.7,-0.13,0.02,-0.03,0.04
17846962,7.08,-6.71,-0.14,0.07,-0.02,0.05
17846987,7.03,-6.85,-0.24,0.04,-0.01,0.06
17847013,6.96,-6.71,-0.21,0.03,-0.03,0.05
17847038,6.87,-6.55,-0.11,0.05,-0.03,0.04
17847063,6.91,-6.55,-0.04,0.06,-0.01,0.04
17847091,7.01,-6.65,-0.13,0.05,-0.01,0.05
17847113,6.79,-6.5,-0.24,0.03,-0.04,0.06
17847137,6.58,-6.19,-0.09,0.03,-0.03,0.03
17847162,6.66,-6.15,-0.02,0.07,-0.01,0.03
17847187,6.73,-6.23,-0.13,0.06,-0.01,0.06
17847212,6.6,-6.17,-0.2,0.02,-0.03,0.06
17847237,6.29,-5.75,-0.11,0.02,-0.05,0.03
17847263,6.51,-5.92,-0.09,0.04,-0.04,0.04
17847288,6.24,-5.68,-0.14,0.03,-0.04,0.04
17847312,6.22,-5.53,-0.24,0.02,-0.05,0.04
17847337,6.36,-5.59,-0.23,0.04,-0.05,0.04
17847362,6.2,-5.51,-0.27,0.04,-0.05,0.04
17847387,6.14,-5.45,-0.26,0.03,-0.06,0.04
17847412,6.32,-5.57,-0.26,0.03,-0.06,0.04
17847437,6.32,-5.47,-0.24,0.03,-0.05,0.03
17847463,6.26,-5.38,-0.12,0.04,-0.05,0.03
17847488,6.44,-5.61,-0.14,0.05,-0.05,0.04
17847512,6.38,-5.57,-0.19,0.04,-0.05,0.04
17847537,6.5,-5.59,-0.1,0.04,-0.06,0.04
17847562,6.59,-5.67,-0.02,0.06,-0.06,0.04
17847587,6.42,-5.52,0.06,0.04,-0.05,0.03
17847612,6.52,-5.48,0.08,0.05,-0.04,0.03
17847637,6.78,-5.72,0,0.07,-0.06,0.04
17847663,7.2,-6.08,0.06,0.05,-0.07,0.06
17847688,7.48,-6.25,0.16,0.03,-0.08,0.07
17847829,7.4,-6.45,0.52,0.01,-0.09,0.09
17847854,7.02,-6.17,0.47,0.01,-0.07,0.07
17847879,7.21,-6.27,0.31,0.01,-0.07,0.09
17847904,7.37,-6.43,0.2,-0.01,-0.08,0.12
17847929,7.24,-6.46,0.19,-0.03,-0.08,0.13
17847954,7.36,-6.45,0.16,-0.05,-0.08,0.11
17847979,7.33,-6.48,0.11,-0.04,-0.05,0.09
17848004,7.3,-6.52,0.11,-0.01,-0.02,0.08
17848030,7.3,-6.54,0.09,0,-0.03,0.07
17848054,7.04,-6.42,-0.05,-0.02,-0.05,0.08
17848079,6.77,-6.24,-0.08,-0.01,-0.04,0.06
17848104,6.8,-6.13,-0.05,-0.01,-0.04,0.06
17848129,6.98,-6.35,-0.15,0.01,-0.03,0.09
17848154,7.03,-6.53,-0.2,-0.01,-0.03,0.09
17848179,7.08,-6.61,-0.13,-0.03,-0.05,0.09
17848204,7.01,-6.59,-0.06,0.01,-0.05,0.08
17848230,6.88,-6.73,-0.07,0.01,-0.03,0.08
17848254,7.04,-6.88,-0.07,0.01,-0.03,0.08
17848279,7.35,-7,-0.16,0.01,-0.04,0.06
17848304,6.99,-6.79,-0.04,0.01,-0.03,0.03
17848330,6.69,-6.45,-0.01,0.04,-0.03,0.01
17848354,6.74,-6.52,-0.2,0.05,0,0.02
17848379,6.95,-6.54,-0.16,0.04,0,0.03
17848404,7.67,-7.24,0.09,0.05,0,0.04
17848430,8.09,-7.92,0,0.03,0.01,0.08
17848454,7.87,-7.93,-0.06,0,0,0.07
17848479,8.12,-8.12,0.19,0.03,0.01,0.05
17848504,8.6,-8.55,0.26,0.04,0.02,0.06
17848532,8.64,-8.9,0.26,0,0,0.08
17848557,8.83,-9.15,0.18,-0.01,-0.03,0.09
17848581,8.87,-9.3,0.25,-0.01,-0.05,0.08
17848606,8.75,-9.13,0.43,0,-0.04,0.05
17848631,9.01,-9.4,0.3,0.01,-0.04,0.06
17848657,8.99,-9.44,0.15,0,-0.05,0.06
17848681,8.7,-9,0.13,0.01,-0.06,0.04
17848706,8.68,-8.75,0.37,0.06,0,0.03
17848731,8.59,-8.69,0,0.04,-0.01,0.06
17848878,7.13,-7.32,-0.03,0.03,-0.03,0.06
17848902,7.01,-7.14,-0.15,0.03,0,0.07
17848927,6.84,-6.8,-0.26,0.02,-0.01,0.07
17848952,6.98,-7.04,-0.41,0.03,-0.01,0.09
17848977,6.97,-7.03,-0.41,0,-0.05,0.09
17849002,6.87,-6.86,-0.15,0.03,-0.03,0.07
17849029,6.84,-6.96,-0.22,0.07,-0.01,0.07
17849054,6.87,-6.85,-0.4,0.04,-0.01,0.06
17849078,6.74,-6.59,-0.34,0.03,-0.03,0.04
17849103,6.81,-6.8,-0.24,0.07,-0.01,0.03
17849128,7.21,-7.14,-0.38,0.07,-0.03,0.06
17849154,7.1,-7.05,-0.31,0.04,-0.05,0.05
17849179,6.42,-6.42,-0.29,0.03,-0.04,0.01
17849203,6.81,-6.59,-0.13,0.09,0.01,0.01
17849228,7.65,-7.23,-0.36,0.11,-0.01,0.06
17849254,6.77,-6.99,-0.24,0.04,-0.06,0.08
17849278,6.5,-6.69,-0.14,0.01,-0.04,0.04
17849303,6.85,-6.68,-0.3,0.07,-0.04,0.03
17849328,7.33,-7.04,-0.24,0.07,-0.04,0.06
17849354,7.24,-6.86,-0.04,0.08,-0.05,0.04
17849379,7.02,-6.6,0.09,0.09,-0.02,0
17849403,7.32,-6.85,-0.16,0.09,0,0
17849428,7.63,-6.89,-0.2,0.1,-0.03,0.01
17849454,7.84,-6.93,0.09,0.12,-0.04,0
17849479,8.26,-7.35,0.14,0.11,-0.02,0.02
17849503,7.78,-7.11,0.18,0.06,-0.01,0.01
17849528,7.75,-6.92,0.2,0.06,-0.02,0
17849554,8.15,-7.21,0.13,0.09,-0.03,0.03
17849579,7.74,-7.18,0.11,0.04,-0.04,0.07
17849603,7.76,-7.28,0.07,0.01,-0.06,0.09
17849628,8.04,-7.48,0.03,0.03,-0.07,0.11
17849653,7.47,-7.17,-0.04,-0.01,-0.07,0.11
17849678,7.46,-7.24,-0.03,-0.02,-0.06,0.11
17849818,7.91,-7.55,0.01,0.06,-0.03,0.04
17849842,7.65,-7.31,0.01,0.07,0,0.01
17849868,7.67,-7.08,-0.05,0.09,-0.01,0.01
17849892,7.75,-7.05,0,0.09,-0.01,0.02
17849918,8.16,-7.38,0.01,0.08,0,0.04
17849942,8.11,-7.25,-0.07,0.05,-0.04,0.06
17849968,7.43,-6.82,0.08,0.03,-0.01,0.04
17849992,7.42,-6.72,-0.08,0.04,0,0.05
17850018,8.18,-7.26,-0.2,0.04,-0.04,0.09
17850043,7.97,-7.32,-0.16,0,-0.07,0.11
17850067,7.51,-7.3,-0.11,-0.03,-0.06,0.13
17850092,7.63,-7.26,-0.29,-0.01,-0.07,0.13
17850118,7.49,-6.99,-0.29,0.02,-0.05,0.11
17850143,7.39,-6.94,-0.16,0.03,-0.04,0.1
17850168,7.64,-7.31,-0.33,0.03,-0.04,0.12
17850192,6.98,-7.01,-0.41,0.02,-0.05,0.12
17850218,7.02,-6.94,-0.15,0.03,-0.03,0.1
17850242,7.87,-7.29,-0.33,0.07,-0.02,0.12
17850267,7.44,-7.09,-0.24,0.02,-0.03,0.1
17850292,6.75,-6.77,0.06,0.02,0,0.06
17850318,7.21,-6.85,-0.25,0.05,-0.01,0.06
17850343,7.55,-7.05,-0.29,0.06,-0.01,0.08
17850368,7.48,-7.07,-0.1,0.05,-0.02,0.06
17850392,7.17,-7.05,-0.16,0.05,-0.01,0.06
17850418,6.74,-6.66,-0.25,0.05,-0.01,0.04
17850443,6.95,-6.64,-0.12,0.07,0,0.02
17850468,7.37,-6.99,-0.25,0.06,-0.01,0.05
17850495,7.23,-7.19,-0.42,0.02,-0.03,0.05
17850519,6.81,-6.98,-0.23,0.04,-0.03,0
17850544,7.07,-7.18,-0.21,0.07,-0.01,0.01
17850569,7.28,-7.38,-0.44,0.05,-0.01,0.05
17850595,7.29,-7.34,-0.38,0.03,-0.03,0.03
17850619,7.38,-7.48,-0.27,0.05,-0.03,0.02
17850644,7.33,-7.56,-0.18,0.08,-0.02,0.03
17850669,7.35,-7.48,-0.18,0.08,-0.03,0.01
17850694,7.47,-7.27,-0.25,0.08,-0.04,0
17850845,6.63,-5.83,-0.01,0.13,0.01,-0.07
17850869,6.36,-5.56,-0.11,0.14,0.01,-0.08
17850894,6.45,-5.54,-0.14,0.14,-0.01,-0.07
17850920,6.3,-5.29,-0.09,0.11,-0.03,-0.05
17850944,5.96,-4.95,-0.09,0.11,-0.03,-0.07
17850969,6.01,-4.81,-0.06,0.12,-0.03,-0.08
17850994,5.99,-4.71,-0.16,0.11,-0.03,-0.07
17851019,5.63,-4.41,-0.11,0.11,-0.05,-0.07
17851044,5.96,-4.51,-0.01,0.11,-0.04,-0.06
17851069,6.45,-4.82,-0.06,0.1,-0.04,-0.02
17851094,6.35,-4.91,0.05,0.08,-0.05,-0.01
17851119,6.35,-4.79,0.04,0.08,-0.07,-0.03
17851144,6.57,-5,0.2,0.1,-0.06,-0.03
17851169,7.11,-5.46,0.3,0.09,-0.02,0.01
17851194,7.33,-5.65,0.32,0.06,-0.03,0.04
17851220,7.26,-5.41,0.31,0.04,-0.07,0.05
17851245,6.92,-5.26,0.53,0.05,-0.05,0.03
17851269,7.36,-5.58,0.69,0.1,-0.01,0.04
17851294,7.98,-6.14,0.72,0.08,0,0.07
17851319,7.79,-6.18,0.65,0.01,-0.05,0.08
17851344,7.3,-5.74,0.72,0,-0.08,0.05
17851369,7.41,-5.72,0.91,0.04,-0.06,0.02
17851394,7.56,-6.16,0.96,0.06,-0.05,0.08
17851419,8,-6.31,0.86,0.04,-0.04,0.06
17851444,8.02,-6.25,0.8,0.01,-0.07,0.08
17851469,7.65,-5.9,0.85,-0.02,-0.08,0.04
17851494,7.73,-5.87,0.97,0,-0.07,0.05
17851519,8.26,-6.38,0.88,0.03,-0.03,0.08
17851545,8.19,-6.62,0.81,-0.01,-0.06,0.1
17851569,8.37,-6.6,0.81,-0.04,-0.08,0.1
17851594,8.45,-6.52,0.81,-0.04,-0.07,0.08
17851619,8.03,-6.39,1.01,-0.01,-0.04,0.05
17851644,8.53,-6.83,1.01,0.02,-0.02,0.09
17851669,8.95,-7.26,0.9,-0.02,-0.03,0.14
17851694,8.3,-6.87,0.78,-0.09,-0.07,0.1
17851722,7.84,-6.3,0.96,-0.04,-0.05,0.06
17851748,8.38,-6.62,0.91,0,-0.01,0.09
17851878,7.53,-6.56,0.49,0,-0.02,0.1
17851901,7.91,-6.82,0.36,-0.02,-0.03,0.12
17851926,7.72,-6.74,0.26,-0.05,-0.04,0.1
17851951,7.22,-6.33,0.44,-0.03,-0.02,0.06
17851976,7.36,-6.31,0.43,0.02,0.01,0.05
17852001,7.61,-6.58,0.21,0.05,0.01,0.07
17852026,7.32,-6.42,0.25,0.02,-0.02,0.06
17852051,7.37,-6.21,0.47,0.01,-0.02,0.02
17852076,7.58,-6.31,0.51,0.05,0,0.02
17852101,7.48,-6.36,0.56,0.05,0.01,0.03
17852126,7.45,-6.25,0.39,0.03,-0.01,0.03
17852152,7.76,-6.32,0.42,0.04,-0.01,0.02
17852177,7.65,-6.35,0.61,0.05,0.01,0.02
17852201,7.59,-6.38,0.55,0.03,0.01,0.04
17852226,7.63,-6.51,0.46,0.03,0.01,0.05
17852251,7.57,-6.34,0.51,0.03,-0.01,0.06
17852277,7.68,-6.39,0.68,0.03,-0.02,0.06
17852301,7.49,-6.43,0.58,0.03,-0.01,0.07
17852326,7.39,-6.28,0.52,0.01,-0.01,0.06
17852351,7.42,-6.37,0.43,0,-0.04,0.06
17852376,7.34,-6.45,0.35,0.01,-0.05,0.07
17852401,7.38,-6.34,0.44,0.01,-0.05,0.06
17852426,7.51,-6.46,0.56,0.01,-0.03,0.06
17852452,7.71,-6.77,0.35,0,-0.03,0.09
17852477,7.5,-6.67,0.29,-0.01,-0.06,0.09
17852502,7.54,-6.56,0.46,-0.02,-0.05,0.07
17852526,8.03,-6.94,0.46,0.02,0,0.08
17852551,7.99,-7.27,0.47,0.02,0.01,0.1
17852576,8.09,-7.27,0.4,-0.02,-0.01,0.1
17852602,8.04,-7.33,0.4,0,0,0.09
17852626,8.02,-7.34,0.53,0.01,0.02,0.08
17852651,8.07,-7.49,0.61,0.01,0.01,0.09
17852677,8.41,-7.78,0.65,0,0,0.1
17852811,7.57,-6.86,0.62,0.03,-0.01,0.01
17852835,7.66,-6.55,0.69,0,-0.03,-0.02
17852860,8.06,-6.62,0.75,0.02,-0.05,-0.02
17852886,7.81,-6.67,0.71,0.03,-0.06,-0.02
17852911,7.58,-6.51,0.4,0,-0.08,-0.02
17852935,7.45,-6.28,0.37,-0.03,-0.09,-0.02
17852960,7.65,-6.18,0.51,-0.02,-0.08,-0.02
17852985,7.55,-6.26,0.38,-0.01,-0.07,-0.01
17853010,7.05,-6.37,0.2,-0.01,-0.09,0.04
17853035,7.39,-6.52,0.09,-0.03,-0.08,0
17853060,7.61,-6.74,0.01,-0.05,-0.08,-0.01
17853086,7.64,-6.76,0.09,-0.06,-0.1,-0.01
17853111,7.93,-6.59,0.28,-0.08,-0.13,0.03
17853135,7.91,-6.7,0.23,-0.07,-0.1,0.04
17853160,8.17,-6.93,0.18,-0.07,-0.06,0.05
17853185,8.6,-6.99,0.04,-0.06,-0.04,0.08
17853210,8.73,-7.19,0.02,-0.02,-0.02,0.13
17853235,8.32,-7.22,0.22,-0.01,-0.05,0.14
17853260,8.18,-7.24,0.3,-0.01,-0.04,0.16
17853285,8.51,-7.75,0.22,-0.01,-0.01,0.2
17853314,8.66,-7.87,0.12,-0.08,-0.05,0.19
17853335,8.38,-7.8,0,-0.14,-0.09,0.18
17853360,7.99,-7.99,-0.08,-0.12,-0.08,0.18
17853386,8.15,-8.43,-0.25,-0.13,-0.09,0.2
17853411,8.55,-8.39,-0.27,-0.15,-0.12,0.23
17853439,8.39,-8.46,-0.23,-0.15,-0.08,0.25
17853460,8.22,-8.5,-0.41,-0.14,-0.04,0.23
17853485,7.73,-8.2,-0.57,-0.14,-0.04,0.19
17853510,7.35,-8.25,-0.65,-0.11,-0.04,0.17
17853535,7.37,-8.4,-0.76,-0.09,-0.03,0.15
17853560,7.48,-8.57,-0.78,-0.09,-0.05,0.16
17853585,7.19,-8.33,-0.93,-0.1,-0.06,0.14
17853610,7.13,-7.92,-1,-0.08,-0.04,0.14
17853635,7.02,-7.76,-0.96,-0.06,-0.01,0.14
17853660,6.86,-7.71,-0.99,-0.03,0,0.12
17853686,6.95,-7.84,-1,0.02,0.02,0.11
17853710,6.77,-7.72,-1.1,0.03,0,0.1
17853850,6.99,-8.15,-1.05,0.12,0.01,-0.03
17853874,6.96,-8.04,-1.04,0.12,0,-0.06
17853899,7.2,-8.21,-0.97,0.14,0.02,-0.08
17853924,7.26,-8.19,-0.91,0.15,0.01,-0.1
17853949,7.23,-8.19,-0.86,0.14,0.01,-0.12
17853974,7.58,-8.4,-0.85,0.15,-0.01,-0.11
17854000,7.41,-8.09,-0.92,0.13,-0.05,-0.09
17854025,7.06,-7.62,-0.62,0.14,-0.02,-0.1
17854050,7.3,-7.63,-0.67,0.17,0.01,-0.11
17854074,7.57,-7.64,-0.79,0.16,0,-0.11
17854099,7.35,-7.51,-0.66,0.15,-0.02,-0.11
17854124,7.22,-7.47,-0.57,0.17,-0.02,-0.09
17854150,7.43,-7.3,-0.63,0.19,-0.02,-0.08
17854176,7.32,-7.14,-0.5,0.17,-0.02,-0.07
17854201,7.25,-7.2,-0.32,0.14,-0.01,-0.05
17854227,7.4,-7.27,-0.46,0.13,-0.02,-0.03
17854251,7.4,-7.19,-0.51,0.12,-0.04,-0.03
17854277,7.34,-7.22,-0.35,0.11,-0.04,-0.01
17854302,7.48,-7.26,-0.37,0.11,-0.04,0
17854326,7.56,-7.18,-0.44,0.11,-0.03,0
17854351,7.5,-7.19,-0.39,0.11,-0.02,-0.01
17854376,7.45,-7.08,-0.37,0.09,-0.04,-0.01
17854402,7.42,-7.07,-0.33,0.09,-0.04,0
17854427,7.69,-7.13,-0.31,0.11,-0.03,0
17854452,7.77,-7.26,-0.36,0.09,-0.04,0.01
17854477,7.54,-7.15,-0.36,0.08,-0.04,0.02
17854502,7.3,-6.77,-0.31,0.09,-0.05,0
17854526,7.37,-6.76,-0.2,0.11,-0.04,-0.01
17854551,7.38,-6.94,-0.32,0.13,-0.04,0.04
17854576,7.21,-6.6,-0.33,0.08,-0.06,0.01
17854602,7.18,-6.58,-0.21,0.1,-0.05,0.02
17854627,7.37,-6.71,-0.17,0.13,-0.05,0.01
17854651,7.38,-6.61,-0.17,0.11,-0.06,0.02
17854676,7.2,-6.24,-0.22,0.09,-0.06,0.01
17854701,6.77,-5.77,-0.09,0.1,-0.06,-0.01
17854726,6.83,-5.86,0.12,0.15,-0.05,-0.01
17854751,7.38,-6.28,-0.02,0.16,-0.02,0
17854888,8.57,-6.75,0.18,0.12,0.04,0
17854918,8.32,-6.68,0.44,0.12,-0.03,0.02
17854942,8.22,-6.63,0.71,0.12,-0.01,0.03
17854967,8.48,-6.86,0.57,0.1,0.04,0.05
17854991,8.25,-6.81,0.49,0.07,0.03,0.06
17855016,8.24,-7.04,0.73,0.05,0.03,0.08
17855041,8.7,-7.42,0.64,0.02,0.01,0.11
17855067,8.42,-7.3,0.7,-0.02,-0.04,0.12
17855091,8.48,-7.31,0.78,-0.02,-0.03,0.12
17855116,8.66,-7.36,0.72,-0.02,-0.04,0.1
17855141,8.23,-7.08,0.77,-0.04,-0.05,0.11
17855167,8.68,-7.45,0.59,-0.04,-0.04,0.12
17855191,8.61,-7.25,0.47,-0.04,-0.08,0.11
17855216,8.12,-6.92,0.87,-0.02,-0.08,0.1
17855241,8.95,-7.72,0.77,0,-0.01,0.13
17855266,9.21,-7.91,0.53,-0.04,-0.03,0.12
17855291,8.66,-7.44,0.74,-0.04,-0.08,0.09
17855316,8.85,-7.55,0.91,0.01,-0.05,0.08
17855341,8.77,-7.54,0.74,0.03,-0.02,0.08
17855366,8.4,-7.3,0.73,-0.02,-0.04,0.08
17855391,8.82,-7.58,0.75,-0.01,-0.03,0.08
17855416,8.99,-7.63,0.75,0,-0.02,0.07
17855441,8.73,-7.22,0.83,-0.02,-0.05,0.06
17855467,8.8,-7.35,0.88,0.01,-0.02,0.08
17855492,8.88,-7.45,0.9,0.01,0,0.09
17855516,8.75,-7.32,0.83,-0.02,-0.02,0.09
17855541,8.88,-7.41,0.93,0,-0.02,0.09
17855566,9.07,-7.46,1.01,-0.01,-0.01,0.09
17855592,8.87,-7.34,0.99,-0.02,-0.03,0.09
17855617,8.67,-7.24,1.07,-0.01,-0.05,0.08
17855641,8.79,-7.21,1.03,-0.02,-0.03,0.09
17855666,8.57,-7.06,0.93,-0.04,-0.03,0.09
17855812,7.66,-6.1,0.69,0,-0.05,0.03
17855836,7.18,-5.63,0.7,0.02,-0.04,0.01
17855862,6.8,-5.31,0.49,0.04,-0.04,-0.01
17855886,6.57,-5.07,0.36,0.01,-0.05,-0.02
17855912,6.67,-5.16,0.25,0.01,-0.05,0
17855936,6.79,-5.17,0.13,-0.01,-0.04,0.02
17855962,6.6,-5.01,0.03,-0.03,-0.05,0.02
17855987,6.44,-5.04,-0.04,-0.02,-0.05,0.02
17856012,6.38,-4.93,0,-0.03,-0.04,0.04
17856036,6.62,-5.3,-0.04,-0.04,-0.03,0.06
17856062,6.78,-5.6,-0.1,-0.05,-0.05,0.07
17856087,6.61,-5.57,0.02,-0.06,-0.07,0.08
17856112,6.58,-5.7,0.1,-0.04,-0.07,0.08
17856139,6.66,-5.91,0.06,-0.03,-0.05,0.07
17856164,6.57,-5.78,0.01,-0.05,-0.04,0.06
17856190,6.72,-5.87,-0.02,-0.04,-0.05,0.07
17856215,6.89,-6.07,-0.05,-0.03,-0.06,0.06
17856239,7.01,-6.29,0.04,-0.03,-0.05,0.06
17856264,7.08,-6.36,-0.06,-0.03,-0.04,0.06
17856289,6.97,-6.44,-0.06,-0.02,-0.05,0.05
17856315,6.92,-6.46,-0.05,-0.01,-0.05,0.04
17856339,7.08,-6.6,0,-0.01,-0.03,0.04
17856365,7.23,-6.77,-0.06,0,-0.02,0.05
17856390,7.1,-6.68,-0.04,-0.01,-0.04,0.04
17856415,7.15,-6.65,0.02,-0.02,-0.06,0.03
17856440,7.27,-6.81,0.01,0.01,-0.04,0.01
17856465,7.24,-6.83,-0.04,0.02,-0.02,0.02
17856491,7.04,-6.73,-0.07,0.01,-0.03,0.02
17856516,7.12,-6.74,-0.15,0.02,-0.03,0.02
17856540,7.23,-6.79,-0.09,0.03,-0.04,0.02
17856565,7.21,-6.82,-0.07,0.02,-0.04,0.02
17856591,7.2,-6.9,-0.16,0.02,-0.02,0.03
17856615,7.26,-6.85,-0.18,0.02,-0.03,0.03
17856641,7.2,-6.76,-0.1,0.03,-0.04,0.02
17856665,7.4,-7,-0.05,0.05,-0.02,0.02
17856690,7.45,-7,-0.02,0.05,-0.02,0.02
17856715,7.18,-6.82,-0.1,0.04,-0.04,0.02
17856851,7.55,-6.95,-0.14,0.06,-0.03,0.03
17856876,7.34,-6.8,0.04,0.06,-0.05,0.04
17856901,7.24,-6.84,-0.02,0.03,-0.03,0.05
17856926,7.63,-7.01,-0.15,0.02,-0.04,0.06
17856952,7.98,-7.24,-0.02,0.03,-0.05,0.06
17856977,7.82,-7.29,0.16,0.03,-0.06,0.07
17857001,7.89,-7.4,0.14,0.03,-0.04,0.08
17857026,8.12,-7.45,0.15,0.03,-0.05,0.08
17857051,8.15,-7.4,0.25,0.03,-0.06,0.08
17857076,7.95,-7.39,0.35,0.03,-0.06,0.09
17857101,8.2,-7.6,0.3,0.02,-0.06,0.11
17857126,8.18,-7.61,0.29,0.01,-0.07,0.12
17857152,7.76,-7.33,0.3,0,-0.07,0.12
17857176,7.89,-7.22,0.34,0.01,-0.06,0.1
17857201,8.33,-7.46,0.21,0.02,-0.04,0.11
17857226,8.14,-7.5,0.12,0.01,-0.07,0.11
17857252,7.88,-7.29,0.24,0.01,-0.07,0.11
17857276,7.82,-7.04,0.23,0.02,-0.05,0.1
17857301,7.92,-7.11,0.25,0.04,-0.03,0.1
17857327,8.08,-7.19,0.2,0.04,-0.03,0.09
17857351,7.87,-7.16,0.19,0.04,-0.06,0.08
17857376,7.82,-7.08,0.25,0.05,-0.05,0.09
17857401,7.76,-6.9,0.27,0.06,-0.04,0.08
17857426,7.76,-6.88,0.2,0.04,-0.04,0.08
17857451,7.78,-7.01,0.23,0.04,-0.06,0.08
17857476,7.67,-6.92,0.2,0.03,-0.07,0.09
17857501,7.64,-6.88,0.18,0.02,-0.07,0.1
17857526,7.84,-6.9,0.15,0.04,-0.05,0.08
17857552,7.76,-6.84,0.21,0.05,-0.05,0.08
17857578,7.62,-6.89,0.14,0.04,-0.06,0.1
17857603,7.62,-6.81,0.07,0.03,-0.06,0.1
17857628,7.62,-6.7,0.15,0.05,-0.05,0.1
17857653,7.63,-6.64,0.17,0.04,-0.04,0.09
17857679,7.55,-6.76,0.22,0.04,-0.04,0.09
17857704,7.41,-6.68,0.11,0.03,-0.05,0.1
17857728,7.37,-6.63,0.12,0.02,-0.05,0.1
17857884,7.32,-6.84,0.08,0.03,-0.05,0.08
17857908,7.52,-6.87,0.1,0.07,-0.04,0.07
17857933,7.68,-6.91,0.09,0.06,-0.02,0.05
17857958,7.47,-6.75,0.15,0.04,-0.04,0.03
17857984,7.34,-6.73,0.17,0.06,-0.02,0.03
17858008,7.42,-6.62,0.13,0.09,0,0.02
17858033,7.49,-6.61,0.12,0.07,-0.01,0.03
17858058,7.2,-6.66,0.12,0.07,-0.01,0.04
17858083,7.06,-6.43,0.13,0.07,-0.02,0.02
17858109,7.27,-6.46,0.04,0.06,-0.01,0.02
17858134,7.08,-6.47,0.05,0.06,0.01,0.03
17858158,7.04,-6.35,0.04,0.06,-0.01,0.02
17858183,7.22,-6.45,0.01,0.06,-0.01,0.03
17858208,7.06,-6.43,0,0.05,0,0.04
17858234,6.98,-6.32,0.03,0.05,-0.01,0.05
17858259,7.17,-6.39,-0.04,0.04,-0.01,0.05
17858283,7.1,-6.46,0.06,0.04,-0.02,0.05
17858308,7.02,-6.44,0.06,0.04,-0.02,0.05
17858333,6.99,-6.36,-0.03,0.04,-0.03,0.05
17858358,6.87,-6.33,-0.02,0.04,-0.02,0.05
17858383,6.93,-6.39,-0.03,0.04,-0.01,0.04
17858408,6.91,-6.35,-0.06,0.04,-0.03,0.04
17858433,6.82,-6.2,-0.11,0.05,-0.03,0.04
17858458,6.77,-6.2,-0.01,0.04,-0.02,0.02
17858484,6.9,-6.26,-0.03,0.04,-0.03,0.02
17858508,6.92,-6.43,-0.06,0.04,-0.03,0.03
17858534,6.94,-6.43,-0.05,0.05,-0.03,0.02
17858558,7.09,-6.43,-0.12,0.04,-0.03,0.02
17858583,6.98,-6.47,0.06,0.05,-0.02,0.01
17858608,7.21,-6.62,0.07,0.06,-0.01,0.01
17858633,7.4,-6.79,-0.03,0.04,-0.02,0.01
17858659,7.2,-6.78,0.07,0.04,-0.02,0.01
17858684,7,-6.51,0.05,0.07,-0.02,0
17858823,7.15,-6.39,0.02,0.06,-0.02,-0.01
17858847,7.18,-6.49,0.06,0.07,-0.01,0
17858872,7.18,-6.48,-0.06,0.06,-0.02,0
17858897,7.07,-6.43,-0.06,0.05,-0.03,0
17858923,7.16,-6.55,0.05,0.06,-0.01,0.01
17858947,7.49,-6.76,0.03,0.07,-0.01,0.02
17858972,7.25,-6.74,0.02,0.04,-0.02,0.02
17858997,7.07,-6.65,0.06,0.03,-0.03,0.01
17859022,7.36,-6.68,0.04,0.05,-0.01,0.01
17859047,7.49,-6.83,-0.09,0.04,-0.01,0.03
17859073,7.33,-6.89,0.07,0.03,-0.03,0.02
17859097,7.6,-7.01,0.06,0.05,-0.04,0.02
17859123,7.41,-6.9,0.06,0.05,-0.04,0.02
17859147,7.09,-6.7,0.09,0.04,-0.03,0.01
17859172,7.21,-6.7,0.01,0.05,-0.01,0.01
17859197,7.33,-6.85,-0.09,0.05,-0.02,0.03
17859222,7.24,-6.88,-0.02,0.04,-0.03,0.02
17859248,7.41,-6.96,-0.04,0.05,-0.02,0.02
17859273,7.31,-6.84,-0.11,0.05,-0.02,0.02
17859297,7.05,-6.55,-0.08,0.05,-0.01,0
17859322,7.07,-6.52,-0.09,0.08,0,0.01
17859347,7.14,-6.59,-0.15,0.06,-0.02,0.02
17859372,7.08,-6.68,-0.16,0.04,-0.03,0.03
17859397,7.19,-6.62,-0.06,0.05,-0.02,0.02
17859422,7.29,-6.71,-0.1,0.06,-0.01,0.01
17859447,7.1,-6.71,0.01,0.08,-0.01,0.02
17859473,7.13,-6.61,-0.06,0.07,-0.01,0.04
17859498,7.37,-6.77,-0.02,0.06,-0.01,0.05
17859522,7.38,-6.9,0.04,0.05,-0.03,0.04
17859547,7.45,-7.09,0.05,0.04,-0.04,0.05
17859575,7.53,-7.09,0.08,0.05,-0.04,0.04
17859601,7.46,-7.01,0.11,0.06,-0.02,0.03
17859626,7.4,-7.02,0.02,0.06,-0.03,0.04
17859650,7.52,-7.05,-0.01,0.05,-0.04,0.05
17859675,7.69,-7.16,-0.07,0.05,-0.04,0.04
17859700,7.51,-7.1,0.02,0.06,-0.04,0.03
17859725,7.5,-6.99,0.05,0.06,-0.02,0.03
17859867,7.38,-6.74,0.19,0.07,-0.02,0.02
17859892,7.57,-6.76,0.12,0.08,0,0.02
17859917,7.56,-6.77,0.12,0.07,-0.02,0.03
17859941,7.47,-6.76,0.11,0.06,-0.03,0.04
17859966,7.36,-6.55,0.12,0.06,-0.03,0.04
17859991,7.47,-6.54,0.23,0.08,-0.02,0.04
17860016,7.59,-6.86,0.17,0.06,-0.02,0.06
17860041,7.38,-6.63,0.1,0.03,-0.06,0.06
17860067,7.34,-6.42,0.26,0.04,-0.06,0.05
17860092,7.64,-6.7,0.22,0.08,-0.03,0.07
17860117,7.39,-6.75,0.29,0.06,-0.05,0.08
17860141,7.4,-6.68,0.22,0.02,-0.07,0.09
17860166,7.56,-6.71,0.25,0.04,-0.05,0.09
17860191,7.55,-6.8,0.23,0.04,-0.06,0.09
17860216,7.19,-6.63,0.28,0.05,-0.06,0.09
17860241,7.4,-6.85,0.16,0.04,-0.04,0.09
17860266,7.66,-6.91,0.08,0.03,-0.05,0.08
17860292,7.38,-6.76,0.17,0.02,-0.08,0.07
17860317,7.16,-6.78,0.22,0.04,-0.05,0.07
17860341,7.31,-6.68,0.05,0.04,-0.05,0.07
17860366,7.38,-6.59,0.04,0.03,-0.06,0.07
17860391,7.23,-6.47,0.16,0.04,-0.05,0.06
17860416,7.06,-6.28,0.2,0.06,-0.04,0.05
17860441,6.77,-6.08,0.15,0.06,-0.03,0.06
17860466,7.01,-6.23,0.11,0.06,-0.03,0.07
17860491,7.21,-6.3,0.16,0.06,-0.03,0.08
17860516,6.96,-6.21,0.18,0.04,-0.05,0.07
17860541,6.62,-6.04,0.27,0.03,-0.05,0.06
17860566,6.9,-5.99,0.12,0.04,-0.03,0.06
17860592,6.91,-6.02,0.05,0.05,-0.04,0.07
17860617,6.83,-6.1,0.12,0.04,-0.05,0.07
17860641,6.88,-6.14,0.14,0.05,-0.06,0.07
17860670,6.94,-6.15,0.12,0.04,-0.06,0.06
17860807,7.19,-6.38,0.24,0.05,-0.05,0.04
17860830,7.2,-6.3,0.18,0.04,-0.04,0.03
17860856,7.27,-6.24,0.24,0.04,-0.04,0.03
17860880,7.41,-6.6,0.24,0.04,-0.04,0.05
17860906,7.54,-6.74,0.25,0.04,-0.05,0.05
17860930,7.67,-6.76,0.25,0.03,-0.05,0.04
17860955,7.52,-6.73,0.33,0.03,-0.05,0.04
17860980,7.48,-6.79,0.34,0.03,-0.04,0.04
17861006,7.57,-6.7,0.19,0.04,-0.06,0.05
17861030,7.44,-6.71,0.29,0.03,-0.05,0.05
17861056,7.52,-6.89,0.31,0.02,-0.06,0.05
17861080,7.52,-6.8,0.15,0.01,-0.06,0.06
17861106,7.5,-6.79,0.17,0.01,-0.05,0.07
17861130,7.45,-6.71,0.24,0.02,-0.06,0.06
17861155,7.58,-6.82,0.18,0.01,-0.06,0.08
17861180,7.48,-6.87,0.19,0,-0.06,0.08
17861206,7.28,-6.69,0.28,0.01,-0.06,0.07
17861230,7.34,-6.64,0.16,0.01,-0.06,0.07
17861255,7.44,-6.73,0.14,0.01,-0.04,0.07
17861280,7.46,-6.62,0.23,0.03,-0.05,0.05
17861305,7.57,-6.85,0.28,0.03,-0.04,0.05
17861330,7.57,-6.95,0.13,0.02,-0.04,0.06
17861355,7.44,-6.75,0.15,0.01,-0.05,0.05
17861381,7.51,-6.66,0.19,0.03,-0.05,0.04
17861406,7.57,-6.84,0.25,0.03,-0.03,0.04
17861430,7.71,-6.98,0.15,0.03,-0.03,0.05
17861455,7.88,-7.11,0.09,0.02,-0.05,0.05
17861480,7.52,-6.94,0.18,0.02,-0.05,0.03
17861505,7.82,-7.02,0.28,0.04,-0.03,0.03
17861530,8.22,-7.36,0.19,0.05,-0.02,0.05
17861556,7.78,-7.38,0.18,0.01,-0.05,0.05
17861580,7.61,-7.16,0.2,0,-0.07,0.05
17861605,7.9,-7.36,0.13,0.02,-0.05,0.06
17861630,7.89,-7.45,0.11,0.02,-0.04,0.05
17861655,7.89,-7.43,0.2,0.01,-0.06,0.05
17861680,7.89,-7.5,0.04,0.01,-0.06,0.06
17861705,7.75,-7.41,-0.04,0.01,-0.05,0.06
17861841,7.54,-7.17,0.01,0.03,-0.03,0.06
17861866,7.45,-7.07,-0.04,0.03,-0.02,0.06
17861891,7.36,-7.04,-0.03,0.05,-0.02,0.06
17861916,7.3,-6.98,0.01,0.03,-0.03,0.07
17861941,7.44,-7.05,-0.13,0.01,-0.03,0.08
17861966,7.28,-7.01,-0.14,0.02,-0.03,0.08
17861991,6.95,-6.67,-0.12,0.03,-0.04,0.06
17862016,7.23,-6.82,0,0.05,-0.01,0.06
17862042,7.32,-6.89,-0.15,0.06,-0.01,0.08
17862067,6.95,-6.68,-0.12,0.02,-0.04,0.08
17862091,7.27,-6.69,-0.11,0.02,-0.03,0.05
17862116,7.35,-6.75,-0.03,0.07,-0.01,0.04
17862141,7.29,-6.87,0,0.07,-0.01,0.06
17862166,7.33,-6.88,-0.03,0.05,-0.03,0.05
17862191,7.2,-6.63,0,0.05,-0.03,0.04
17862216,7.15,-6.54,0.1,0.06,-0.03,0.04
17862241,7.29,-6.73,-0.02,0.06,-0.02,0.05
17862266,6.99,-6.45,0.01,0.04,-0.04,0.05
17862291,7.01,-6.47,0.02,0.04,-0.04,0.05
17862316,7.32,-6.77,-0.02,0.05,-0.02,0.07
17862342,7.08,-6.72,0.04,0.03,-0.05,0.08
17862366,7.04,-6.56,0.06,0.02,-0.06,0.07
17862391,7.32,-6.65,0.07,0.05,-0.03,0.06
17862416,7.45,-6.91,0.08,0.07,-0.03,0.07
17862442,7.2,-6.9,0.11,0.04,-0.06,0.06
17862466,7.37,-6.9,0.03,0.03,-0.05,0.06
17862491,7.22,-6.65,0.12,0.05,-0.04,0.04
17862520,7.55,-6.9,0.15,0.06,-0.04,0.04
17862541,7.76,-7.23,0.07,0.07,-0.04,0.05
17862566,7.64,-7.19,0.07,0.05,-0.05,0.04
17862591,7.84,-7.27,0.14,0.04,-0.04,0.03
17862617,8.03,-7.47,0.07,0.05,-0.05,0.03
17862642,7.93,-7.59,0.2,0.05,-0.04,0.03
17862666,7.9,-7.55,0.16,0.04,-0.06,0.04
17862691,8.07,-7.78,0.08,0.04,-0.06,0.04
17862716,7.84,-7.53,0.13,0.05,-0.06,0.03
17862742,7.77,-7.43,0.11,0.06,-0.05,0.02
17862883,8.1,-7.75,0.1,0.1,-0.01,0.03
17862907,7.87,-7.69,0.02,0.1,-0.01,0.02
17862932,7.7,-7.35,0.15,0.1,-0.03,0
17862957,8.05,-7.72,0.27,0.12,0.01,0
17862983,7.96,-7.74,0.07,0.1,-0.02,0.02
17863011,7.73,-7.37,0.17,0.07,-0.04,-0.01
17863037,7.91,-7.34,0.16,0.12,0,-0.01
17863061,7.74,-7.34,0.2,0.13,0.01,0
17863086,7.85,-7.31,0.19,0.11,0,0.01
17863112,8.02,-7.4,0.15,0.09,-0.02,0.01
17863136,7.94,-7.38,0.24,0.09,-0.03,0
17863161,7.86,-7.33,0.32,0.11,-0.01,0.01
17863186,7.96,-7.35,0.25,0.11,-0.01,0.01
17863212,7.97,-7.37,0.28,0.1,-0.02,0.02
17863236,8.18,-7.49,0.33,0.1,-0.02,0.02
17863262,8.06,-7.46,0.31,0.09,-0.03,0.01
17863287,7.79,-7.21,0.34,0.09,-0.02,0
17863312,7.99,-7.19,0.37,0.11,0.01,0
17863337,8.15,-7.24,0.3,0.09,0,0.01
17863362,7.99,-7.24,0.38,0.08,-0.02,0.01
17863388,7.86,-6.92,0.38,0.08,-0.03,0
17863412,7.83,-6.9,0.4,0.1,0.01,0.01
17863437,7.9,-7.03,0.37,0.1,0.01,0.02
17863462,7.97,-7,0.35,0.08,-0.01,0.02
17863487,8.03,-7.06,0.31,0.07,-0.02,0.02
17863512,7.81,-6.91,0.44,0.08,-0.01,0.02
17863537,7.78,-6.89,0.38,0.08,0,0.03
17863563,8.06,-7.12,0.4,0.06,0,0.05
17863588,8,-7.06,0.35,0.06,-0.02,0.06
17863612,7.71,-6.77,0.44,0.05,-0.03,0.03
17863637,7.72,-6.66,0.45,0.05,-0.01,0.04
17863663,7.62,-6.52,0.36,0.05,-0.01,0.05
17863688,7.5,-6.46,0.36,0.05,-0.02,0.06
17863823,7.47,-6.24,0.28,-0.01,-0.04,0.07
17863848,7.44,-6.33,0.39,0,-0.02,0.08
17863873,7.4,-6.33,0.3,-0.01,-0.05,0.09
17863897,7.66,-6.56,0.31,-0.01,-0.04,0.09
17863923,7.41,-6.46,0.47,0,-0.04,0.09
17863947,7.33,-6.38,0.41,0,-0.05,0.09
17863973,7.17,-6.16,0.36,0,-0.05,0.08
17863999,7.09,-5.93,0.43,0.01,-0.04,0.07
17864024,7.4,-6.08,0.44,0.01,-0.03,0.06
17864048,7.5,-6.26,0.3,0,-0.04,0.06
17864073,7.16,-6.07,0.4,0,-0.04,0.06
17864098,7.05,-5.9,0.39,0.01,-0.03,0.07
17864124,7.25,-6.02,0.33,0.01,-0.01,0.08
17864148,7.42,-6.25,0.39,-0.01,-0.03,0.08
17864173,7.64,-6.45,0.43,-0.03,-0.06,0.07
17864198,7.36,-6.42,0.43,-0.03,-0.05,0.07
17864224,7.35,-6.36,0.4,0,-0.04,0.06
17864249,7.46,-6.29,0.44,0.01,-0.03,0.06
17864273,7.66,-6.57,0.43,0,-0.04,0.08
17864298,7.6,-6.63,0.41,-0.02,-0.07,0.08
17864323,7.6,-6.52,0.43,-0.03,-0.07,0.07
17864348,7.6,-6.49,0.42,-0.01,-0.04,0.06
17864373,7.72,-6.7,0.37,0,-0.03,0.06
17864398,7.7,-6.74,0.37,-0.01,-0.05,0.06
17864423,7.55,-6.71,0.39,-0.02,-0.04,0.06
17864448,7.57,-6.68,0.33,-0.02,-0.02,0.07
17864473,7.42,-6.65,0.22,-0.02,-0.03,0.07
17864502,7.44,-6.8,0.17,-0.02,-0.03,0.07
17864523,7.58,-6.97,0.22,-0.02,-0.03,0.08
17864548,7.42,-6.92,0.23,-0.03,-0.04,0.08
17864573,7.22,-6.87,0.2,-0.03,-0.03,0.08
17864598,7.35,-6.96,0.15,-0.01,-0.02,0.08
17864623,7.35,-6.99,0.1,-0.01,-0.04,0.08
17864648,7.18,-6.93,0.06,0,-0.03,0.07
17864673,7.11,-6.81,0.13,0,-0.02,0.06
17864698,7.29,-7,0.02,0,-0.02,0.06
17864846,7.33,-7.29,-0.13,0.01,-0.03,0.03
17864870,7.25,-7.18,-0.01,0.03,-0.01,0.02
17864895,7.5,-7.38,0.03,0.06,0.02,0.04
17864920,7.72,-7.81,-0.09,0.05,0,0.06
17864946,7.57,-7.86,-0.17,0.02,-0.03,0.04
17864978,7.39,-7.62,-0.01,0.03,-0.01,0.03
17864995,7.56,-7.66,0.06,0.08,0.03,0.03
17865020,7.5,-7.8,0.06,0.09,0.01,0.05
17865046,7.23,-7.59,0.08,0.06,-0.03,0.05
17865070,7.17,-7.28,0.2,0.06,-0.02,0.01
17865095,7.28,-7.24,0.27,0.1,0.01,0.01
17865120,7.16,-7.28,0.16,0.1,0.01,0.02
17865146,7.4,-7.3,0.05,0.09,0,0.01
17865170,7.39,-6.9,0.09,0.08,-0.02,-0.03
17865195,6.9,-6.54,0.18,0.1,0,-0.05
17865224,7,-6.42,0.33,0.11,0.03,-0.05
17865246,7.55,-6.86,0.37,0.12,0.02,-0.03
17865270,7.41,-6.98,0.24,0.08,-0.01,0
17865295,7.26,-6.84,0.26,0.05,-0.04,0
17865320,7.24,-6.61,0.32,0.06,-0.04,0
17865345,7.27,-6.65,0.47,0.07,-0.04,0.03
17865370,7.54,-7.15,0.47,0.04,-0.04,0.08
17865395,8.01,-7.53,0.32,-0.02,-0.08,0.11
17865420,7.8,-7.33,0.46,-0.04,-0.1,0.12
17865445,7.86,-7.43,0.66,-0.02,-0.08,0.14
17865472,8.16,-7.68,0.65,-0.02,-0.09,0.15
17865496,8.24,-7.58,0.55,-0.04,-0.09,0.16
17865522,8.34,-7.73,0.67,-0.04,-0.09,0.16
17865547,8.44,-7.88,0.6,-0.03,-0.07,0.17
17865571,8.43,-7.89,0.65,-0.04,-0.08,0.16
17865596,8.48,-7.84,0.72,-0.04,-0.08,0.16
17865621,8.5,-8.06,0.65,-0.04,-0.05,0.17
17865647,8.54,-8.27,0.54,-0.06,-0.07,0.19
17865671,8.69,-8.23,0.59,-0.08,-0.09,0.2
17865696,8.68,-8.36,0.66,-0.06,-0.08,0.19
17865722,8.82,-8.63,0.63,-0.07,-0.09,0.19
17865747,8.97,-8.7,0.65,-0.07,-0.1,0.16
17865883,8.7,-8.22,0.87,0.03,-0.04,0.07
17865907,8.96,-8.35,0.84,0.05,-0.01,0.06
17865933,8.83,-8,0.75,0.05,-0.02,0.04
17865957,8.39,-7.74,0.88,0.06,-0.01,0.02
17865983,8.63,-7.83,0.83,0.07,0,0.03
17866007,8.65,-7.83,0.75,0.04,-0.02,0.04
17866032,8.34,-7.62,0.8,0.04,-0.05,0.03
17866057,8.41,-7.53,0.91,0.07,-0.03,0.02
17866083,8.5,-7.52,0.87,0.06,0,0.03
17866107,8.39,-7.64,0.81,0.07,0.01,0.04
17866132,8.32,-7.6,0.83,0.07,-0.01,0.04
17866157,8.39,-7.57,0.71,0.05,0,0.04
17866182,8.1,-7.42,0.83,0.04,0,0.04
17866207,8.22,-7.47,0.67,0.06,-0.01,0.04
17866232,8.52,-7.75,0.68,0.04,-0.02,0.04
17866258,8.4,-7.8,0.78,0.02,-0.03,0.04
17866283,8.26,-7.76,0.68,0.03,-0.02,0.03
17866307,7.92,-7.44,0.57,0.03,-0.03,0.03
17866332,7.96,-7.47,0.55,0.02,-0.01,0.03
17866357,8.21,-7.61,0.54,0.03,-0.02,0.03
17866382,8.19,-7.78,0.46,0.01,-0.02,0.04
17866407,8.02,-7.72,0.42,0.01,-0.02,0.03
17866433,7.89,-7.42,0.47,0.03,0,0.02
17866458,7.84,-7.48,0.46,0.05,0.02,0.03
17866483,8.09,-7.79,0.31,0.02,0,0.05
17866507,8.05,-7.66,0.42,0.02,-0.04,0.03
17866532,7.71,-7.4,0.49,0.02,-0.01,0.03
17866557,8.03,-7.62,0.37,0.03,0.02,0.04
17866582,8.09,-7.67,0.33,0.03,-0.02,0.04
17866607,7.9,-7.73,0.35,0.01,-0.02,0.05
17866632,7.87,-7.68,0.31,0.01,-0.02,0.05
17866657,7.94,-7.71,0.32,0.01,-0.03,0.05
17866683,8.09,-7.84,0.3,0.03,-0.01,0.05
17866820,7.52,-7.37,0.24,0.05,-0.01,0.04
17866843,7.63,-7.49,0.17,0.07,0,0.05
17866869,7.8,-7.54,0.17,0.05,-0.02,0.04
17866893,7.6,-7.43,0.18,0.04,-0.01,0.03
17866918,7.49,-7.26,0.19,0.06,-0.01,0.02
17866944,7.57,-7.23,0.3,0.09,0.01,0.01
17866968,7.52,-7.3,0.26,0.09,0.02,0.02
17866993,7.43,-7.27,0.22,0.08,0,0.01
17867018,7.58,-7.2,0.29,0.08,0.02,-0.01
17867044,7.29,-7.08,0.31,0.09,0.01,0
17867069,7.16,-7.1,0.13,0.06,0,0.03
17867093,7.34,-6.97,0.16,0.04,-0.02,0.02
17867118,7.28,-6.95,0.15,0.06,-0.01,0.03
17867143,6.98,-6.96,0.18,0.05,-0.03,0.05
17867168,7.24,-7.16,0.19,0.04,-0.03,0.06
17867193,7.25,-7.02,0.13,0.04,-0.03,0.05
17867218,6.97,-6.81,0.11,0.04,-0.03,0.04
17867244,6.77,-6.72,0.12,0.06,-0.02,0.05
17867268,7.03,-6.81,0.06,0.06,-0.01,0.04
17867293,7.13,-6.86,0.08,0.05,-0.03,0.04
17867318,6.9,-6.96,-0.04,0.03,-0.03,0.05
17867344,6.75,-6.84,-0.03,0.03,-0.04,0.05
17867369,7.04,-6.99,0.1,0.05,-0.03,0.02
17867394,7.23,-7.23,0.06,0.06,-0.03,0.04
17867419,7.11,-7.28,0.04,0.04,-0.03,0.04
17867443,7.08,-7.21,0.05,0.04,-0.04,0.02
17867468,6.87,-7.02,0.05,0.06,-0.03,0.02
17867493,6.78,-6.9,0.12,0.07,-0.02,0.01
17867518,6.98,-7.09,-0.02,0.07,-0.03,0.01
17867543,6.48,-6.72,-0.13,0.05,-0.04,0.01
17867568,6.34,-6.53,-0.03,0.06,-0.03,0
17867593,6.59,-6.55,-0.01,0.07,-0.02,-0.01
17867618,6.46,-6.55,-0.29,0.05,-0.03,0.01
17867643,6.33,-6.48,-0.23,0.06,-0.04,0
17867668,6.56,-6.5,-0.19,0.08,-0.03,-0.02
17867693,6.52,-6.5,-0.23,0.08,-0.03,-0.01
17867719,6.39,-6.57,-0.18,0.1,-0.02,-0.01
17867857,6.56,-6.65,-0.12,0.05,-0.05,0
17867881,6.82,-6.68,-0.09,0.09,-0.03,-0.02
17867906,6.81,-6.87,-0.02,0.09,-0.04,-0.01
17867931,6.74,-6.91,-0.02,0.06,-0.05,0
17867956,6.77,-6.69,-0.21,0.06,-0.05,0
17867981,6.75,-6.59,-0.03,0.09,-0.05,0
17868006,6.91,-6.81,0.08,0.09,-0.03,0
17868031,6.92,-7.02,-0.05,0.08,-0.04,0.02
17868060,6.84,-6.91,0,0.07,-0.06,0.02
17868081,6.95,-6.91,0.06,0.07,-0.06,0.02
17868107,6.99,-6.96,0.03,0.07,-0.05,0.02
17868132,6.93,-6.94,0.08,0.06,-0.06,0.02
17868156,6.95,-7.06,0.02,0.06,-0.06,0.03
17868181,7.08,-7.08,-0.06,0.06,-0.06,0.03
17868206,7.09,-6.97,0.09,0.07,-0.06,0.02
17868231,7.16,-7.13,0.13,0.07,-0.04,0.03
17868257,7.04,-7.17,-0.07,0.06,-0.04,0.04
17868281,6.84,-6.81,0.04,0.07,-0.05,0.03
17868307,7.15,-6.92,-0.03,0.09,-0.04,0.03
17868331,7,-6.87,0.01,0.06,-0.04,0.01
17868356,6.67,-6.59,0.11,0.06,-0.04,0.01
17868381,6.73,-6.58,0,0.09,-0.02,0.02
17868410,6.97,-6.7,-0.09,0.06,-0.03,0.04
17868432,6.86,-6.65,0,0.06,-0.04,0.04
17868457,6.72,-6.83,-0.09,0.06,-0.05,0.06
17868481,6.54,-6.65,0.01,0.05,-0.06,0.05
17868506,6.82,-6.64,0.05,0.05,-0.03,0.05
17868531,6.92,-6.81,-0.05,0.04,-0.04,0.07
17868556,6.8,-6.85,-0.06,0.04,-0.07,0.06
17868581,7.02,-6.86,0.1,0.04,-0.07,0.05
17868607,7.37,-7.19,0.09,0.04,-0.06,0.06
17868632,7.23,-7.23,0.13,0.04,-0.07,0.05
17868656,7.18,-7.13,0.18,0.05,-0.08,0.04
17868801,7.46,-7.21,0.3,0.06,-0.07,0.04
17868806,7.44,-7.18,0.32,0.07,-0.07,0.04
17868830,7.62,-7.32,0.28,0.06,-0.05,0.04
17868855,7.55,-7.17,0.36,0.05,-0.06,0.03
17868881,7.42,-7.03,0.36,0.06,-0.06,0.03
17868907,7.38,-7.06,0.37,0.08,-0.04,0.04
17868931,7.47,-7.22,0.34,0.07,-0.03,0.05
17868956,7.42,-7.14,0.27,0.04,-0.06,0.06
17868981,7.27,-6.99,0.32,0.04,-0.06,0.05
17869006,7.37,-6.9,0.35,0.05,-0.04,0.04
17869031,7.31,-6.74,0.32,0.04,-0.05,0.04
17869056,7.3,-6.95,0.28,0.04,-0.05,0.06
17869081,7.5,-6.99,0.17,0.03,-0.06,0.07
17869107,7.71,-7.05,0.38,0.04,-0.07,0.06
17869131,7.52,-7.06,0.46,0.05,-0.06,0.06
17869156,7.4,-7.09,0.34,0.05,-0.04,0.08
17869181,7.64,-7.07,0.23,0.03,-0.06,0.08
17869206,7.82,-7.2,0.43,0.03,-0.08,0.07
17869235,7.62,-7.17,0.49,0.03,-0.06,0.07
17869256,7.7,-7.29,0.36,0.03,-0.05,0.09
17869281,7.95,-7.49,0.31,0.02,-0.07,0.1
17869307,7.81,-7.45,0.43,0.02,-0.08,0.1
17869331,8.01,-7.58,0.46,0.03,-0.04,0.09
17869356,7.97,-7.65,0.38,0.03,-0.05,0.1
17869381,7.85,-7.65,0.42,0.01,-0.06,0.1
17869406,8.24,-7.81,0.45,0.02,-0.06,0.1
17869431,8.28,-7.98,0.45,0.03,-0.06,0.09
17869456,8.2,-7.96,0.58,0.04,-0.04,0.08
17869485,8.22,-7.87,0.59,0.05,-0.02,0.06
17869507,8.37,-8.04,0.48,0.06,-0.03,0.07
17869531,8.34,-8.03,0.52,0.04,-0.05,0.06
17869556,8.33,-8.05,0.53,0.04,-0.04,0.06
17869581,8.39,-7.97,0.61,0.05,-0.03,0.05
17869606,8.34,-7.82,0.61,0.06,-0.02,0.03
17869631,8.33,-7.84,0.65,0.09,0,0.03
17869656,8.27,-7.9,0.53,0.06,-0.01,0.05
17869681,8.15,-7.61,0.54,0.05,-0.03,0.04
17869707,8.02,-7.45,0.64,0.08,0,0.03
17869838,7.9,-7.55,0.62,0.06,0.01,0.08
17869862,7.81,-7.53,0.43,0.02,-0.04,0.08
17869888,7.74,-7.42,0.48,0.01,-0.04,0.08
17869912,7.95,-7.66,0.5,0.02,-0.02,0.08
17869938,7.91,-7.76,0.49,0.02,-0.04,0.09
17869962,7.85,-7.76,0.5,0.01,-0.04,0.08
17869987,7.94,-7.69,0.42,0.02,-0.02,0.07
17870012,7.81,-7.73,0.58,0.03,-0.04,0.07
17870037,7.98,-7.96,0.43,0.03,-0.04,0.08
17870062,7.83,-7.9,0.35,0.03,-0.03,0.08
17870087,7.61,-7.64,0.35,0.02,-0.04,0.07
17870112,7.53,-7.4,0.46,0.06,-0.02,0.04
17870137,7.79,-7.47,0.45,0.09,0.01,0.02
17870162,7.73,-7.49,0.5,0.09,0,0.01
17870187,7.43,-7.37,0.38,0.09,0.01,0.01
17870213,7.16,-6.9,0.32,0.08,0.01,-0.01
17870238,7.37,-6.78,0.47,0.1,0.03,-0.03
17870262,7.47,-6.83,0.56,0.12,0.05,-0.04
17870287,7.4,-7.06,0.5,0.09,0.05,-0.01
17870312,7.18,-6.98,0.35,0.03,0,0.01
17870338,7.61,-7.12,0.45,0.05,0.02,0.02
17870362,7.85,-7.39,0.49,0.05,0.01,0.04
17870387,7.22,-7.36,0.4,-0.01,-0.04,0.05
17870412,7.04,-7.24,0.25,-0.03,-0.05,0.07
17870437,7.34,-7.33,0.32,-0.02,-0.06,0.11
17870462,7.23,-7.44,0.3,-0.04,-0.07,0.13
17870488,7.38,-7.96,0.11,-0.06,-0.06,0.16
17870513,7.32,-7.94,-0.02,-0.09,-0.1,0.17
17870537,7.05,-7.69,0.05,-0.08,-0.11,0.15
17870562,6.96,-7.77,0.16,-0.05,-0.07,0.15
17870587,7.47,-8.19,-0.04,-0.05,-0.03,0.16
17870613,7.31,-8.11,-0.28,-0.08,-0.07,0.15
17870638,7.2,-8.31,-0.05,-0.05,-0.06,0.14
17870662,7.55,-8.57,-0.1,-0.03,-0.06,0.12
17870688,7.46,-8.37,-0.26,-0.05,-0.06,0.1
17870713,7.19,-8.35,-0.13,-0.01,-0.04,0.09
17870737,7.17,-8.33,-0.11,0.02,-0.05,0.06
17870879,6.97,-7.25,0.12,0.15,0.02,-0.06
17870903,7.25,-7.16,0.06,0.13,0.01,-0.07
17870928,7.31,-7.05,0.08,0.14,0,-0.09
17870953,7.1,-6.92,0.18,0.16,0,-0.09
17870979,7.23,-6.98,0.22,0.15,0,-0.07
17871004,7.43,-6.92,0.25,0.13,-0.01,-0.06
17871028,7.48,-6.91,0.44,0.12,-0.01,-0.06
17871053,7.58,-6.96,0.5,0.11,-0.01,-0.05
17871079,7.63,-7.1,0.51,0.08,-0.02,-0.01
17871104,7.47,-6.97,0.47,0.05,-0.04,0.03
17871128,7.7,-7.08,0.55,0.04,-0.04,0.04
17871153,7.88,-7.24,0.68,0.01,-0.07,0.08
17871179,7.46,-7.13,0.57,-0.03,-0.09,0.12
17871204,7.37,-7,0.53,-0.04,-0.1,0.14
17871228,7.72,-7.13,0.59,-0.03,-0.1,0.14
17871253,7.84,-7.4,0.59,-0.06,-0.1,0.17
17871279,7.23,-7.29,0.26,-0.08,-0.11,0.18
17871304,6.95,-6.96,0.18,-0.07,-0.11,0.18
17871329,7.28,-7.09,0.29,-0.06,-0.11,0.18
17871356,7.6,-7.6,0.34,-0.05,-0.09,0.2
17871381,7.44,-7.86,0.17,-0.07,-0.08,0.19
17871406,7.36,-7.84,0.09,-0.08,-0.1,0.19
17871431,7.47,-7.94,0.1,-0.06,-0.11,0.16
17871456,7.55,-8.11,0.35,-0.01,-0.08,0.14
17871481,8.03,-8.69,0.28,0,-0.04,0.14
17871506,7.78,-8.65,0.12,-0.03,-0.08,0.13
17871531,7.4,-8.22,0.19,-0.01,-0.09,0.1
17871556,7.71,-8.14,0.36,0.05,-0.06,0.06
17871581,7.82,-8.27,0.21,0.05,-0.04,0.05
17871607,7.38,-8.1,0.16,0.04,-0.05,0.04
17871633,7.78,-8.04,0.16,0.06,-0.03,0
17871657,8.02,-8.03,0.21,0.1,0,0
17871803,8.52,-9,0.45,0.1,0.01,0.01
17871827,8.49,-9.06,0.5,0.09,0.01,0.02
17871860,7.69,-8.51,0.49,0.07,-0.03,0.05
17871883,7.88,-8.39,0.63,0.07,-0.03,0.06
17871908,8.43,-8.85,0.63,0.06,-0.01,0.08
17871934,8.04,-9.08,0.28,0.01,-0.05,0.12
17871959,7.7,-8.79,0.25,-0.03,-0.11,0.14
17871983,7.62,-8.54,0.45,0.02,-0.08,0.06
17872008,8,-8.65,0.52,0.06,-0.02,0.08
17872034,7.88,-8.86,0.27,0.04,-0.03,0.09
17872059,7.39,-8.53,0.17,0.03,-0.06,0.1
17872083,7.21,-8.12,0.24,0.04,-0.08,0.07
17872109,7.13,-7.8,0.4,0.07,-0.05,0.06
17872134,7.16,-7.82,0.35,0.09,-0.02,0.04
17872158,7.42,-8.09,0.15,0.08,-0.02,0.04
17872183,7.14,-7.56,0.28,0.1,-0.05,0.02
17872209,6.77,-7.27,0.29,0.13,-0.02,0
17872234,6.72,-7.12,0.39,0.17,-0.01,-0.01
17872258,6.82,-7.04,0.38,0.16,0,-0.02
17872283,6.9,-7.05,0.34,0.15,0,-0.02
17872308,6.68,-6.88,0.34,0.14,-0.01,-0.03
17872337,6.48,-6.52,0.35,0.14,-0.02,-0.04
17872358,6.43,-6.27,0.45,0.17,-0.01,-0.05
17872383,6.67,-6.32,0.53,0.19,0,-0.06
17872409,6.86,-6.35,0.55,0.15,0.01,-0.07
17872433,6.8,-6.23,0.5,0.11,-0.02,-0.06
17872458,6.54,-6.05,0.64,0.14,-0.04,-0.06
17872483,6.6,-5.99,0.7,0.15,-0.04,-0.06
17872509,6.68,-5.94,0.67,0.15,-0.03,-0.05
17872534,6.62,-5.85,0.64,0.13,-0.04,-0.05
17872558,6.5,-5.74,0.65,0.12,-0.05,-0.06
17872589,6.45,-5.67,0.77,0.13,-0.05,-0.06
17872613,6.7,-5.83,0.74,0.12,-0.04,-0.05
17872638,6.82,-5.86,0.61,0.1,-0.05,-0.05
17872662,6.66,-5.66,0.76,0.11,-0.07,-0.06
17872687,6.83,-5.76,0.79,0.11,-0.06,-0.04
17872835,7.33,-6.22,0.95,0.06,-0.07,0.03
17872859,7.22,-6.25,0.93,0.04,-0.06,0.04
17872884,7.1,-6.29,0.94,0.05,-0.06,0.04
17872909,7.05,-6.32,1,0.02,-0.06,0.04
17872934,7.14,-6.39,0.95,0,-0.07,0.05
17872959,6.92,-6.36,0.88,0.01,-0.07,0.05
17872984,7.02,-6.39,0.78,0.01,-0.07,0.06
17873009,7.07,-6.31,0.73,0,-0.07,0.04
17873034,6.95,-6.35,0.9,0.02,-0.05,0.03
17873063,7.04,-6.41,0.77,0.02,-0.05,0.02
17873084,7.18,-6.51,0.67,0.02,-0.04,0.01
17873109,7.06,-6.33,0.71,0.03,-0.04,-0.01
17873135,7.02,-6.21,0.79,0.06,-0.03,-0.03
17873159,7,-6.24,0.8,0.07,-0.03,-0.04
17873184,6.82,-6.08,0.77,0.06,-0.03,-0.04
17873209,6.86,-5.97,0.94,0.07,-0.03,-0.05
17873234,7.13,-6.19,1,0.07,-0.02,-0.04
17873259,7,-6.26,0.83,0.04,-0.04,-0.03
17873284,7.07,-6.31,0.84,0.04,-0.06,-0.02
17873310,7.26,-6.34,0.88,0.04,-0.06,-0.01
17873335,7.15,-6.35,1.06,0.03,-0.04,0
17873359,7.43,-6.72,1.05,0.02,-0.03,0.03
17873384,7.65,-6.89,0.99,0.01,-0.05,0.04
17873409,7.86,-6.98,1.06,-0.02,-0.05,0.05
17873434,7.93,-7.04,1.17,-0.02,-0.07,0.06
17873459,8,-7.42,1.12,-0.01,-0.07,0.08
17873484,8.3,-7.56,1.16,-0.02,-0.08,0.07
17873509,8.47,-7.7,1.29,-0.04,-0.08,0.07
17873534,8.76,-7.92,1.45,-0.03,-0.07,0.08
17873559,8.92,-8.21,1.39,-0.03,-0.07,0.09
17873584,8.85,-8.21,1.25,-0.04,-0.08,0.08
17873610,8.66,-8.02,1.4,-0.02,-0.07,0.07
17873635,8.85,-8.07,1.48,0,-0.05,0.07
17873659,8.92,-8.14,1.42,0,-0.04,0.06
17873684,8.8,-8.13,1.32,0,-0.04,0.06
17873709,8.73,-7.88,1.26,0,-0.03,0.06
17873735,8.43,-7.5,1.27,0.02,-0.02,0.05
17873872,8.01,-6.71,1.24,0.06,-0.03,0.02
17873897,7.79,-6.5,1.35,0.08,-0.03,0.01
17873922,7.8,-6.57,1.44,0.09,0,0.02
17873947,8.08,-6.81,1.12,0.04,0,0.05
17873973,7.81,-6.36,1.03,0.02,-0.05,0.03
17873997,7.5,-6.09,1.28,0.05,-0.04,0
17874023,7.56,-6.15,1.33,0.08,0,0.01
17874048,7.47,-6.11,1.02,0.04,-0.01,0.03
17874073,7.4,-6.03,0.98,0.02,-0.04,0.03
17874097,7.46,-5.96,1.08,0.01,-0.04,0.03
17874122,7.28,-5.9,0.96,-0.01,-0.03,0.05
17874147,7.09,-5.91,1,-0.01,-0.03,0.06
17874173,7.37,-6.19,0.9,-0.03,-0.02,0.08
17874197,7.54,-6.33,0.83,-0.05,-0.03,0.07
17874222,7,-6.11,0.8,-0.04,-0.04,0.07
17874247,6.85,-6.01,0.79,-0.05,-0.02,0.08
17874272,7.23,-6.27,0.7,-0.06,-0.01,0.09
17874301,7.3,-6.55,0.75,-0.04,-0.01,0.09
17874322,7.44,-6.93,0.63,-0.06,0.01,0.11
17874348,7.2,-6.82,0.44,-0.09,-0.01,0.11
17874373,6.66,-6.38,0.53,-0.05,-0.03,0.08
17874397,6.61,-6.41,0.57,-0.02,-0.01,0.08
17874422,7.06,-6.69,0.58,-0.02,0.01,0.07
17874447,6.68,-6.42,0.36,-0.02,0,0.04
17874473,6.25,-6.13,0.24,0,0,0.03
17874497,6.14,-5.96,0.26,0.01,-0.01,0.02
17874522,6.13,-5.87,0.33,0.03,-0.01,0.01
17874547,6.22,-6.15,0.22,0.04,0.01,0.02
17874572,6.21,-6.19,-0.06,0,0.01,0.03
17874597,5.84,-5.95,-0.11,0.01,0,0.01
17874623,5.8,-5.96,0.03,0.02,0.02,0
17874648,5.93,-6.18,-0.04,0.02,0.03,0.03
17874672,5.74,-6.02,-0.13,0.02,0.01,0.02
17874810,6.36,-6.43,0.19,0.04,0,0.02
17874834,6.48,-6.6,0.22,0.05,-0.01,0.01
17874859,6.52,-6.7,0.28,0.06,-0.02,0.01
17874885,6.51,-6.65,0.28,0.06,-0.03,-0.01
17874910,6.48,-6.47,0.46,0.09,-0.02,-0.03
17874934,6.64,-6.53,0.53,0.09,0,-0.03
17874959,6.73,-6.7,0.43,0.06,-0.02,-0.02
17874984,6.72,-6.67,0.35,0.05,-0.06,-0.02
17875009,6.71,-6.47,0.51,0.06,-0.06,-0.02
17875038,7,-6.76,0.57,0.07,-0.02,0
17875063,7.14,-7.03,0.45,0.05,-0.03,0.03
17875088,7.28,-7.24,0.49,0.04,-0.03,0.04
17875113,7.64,-7.49,0.61,0.02,-0.03,0.05
17875139,7.69,-7.67,0.73,0.02,-0.03,0.06
17875163,7.72,-7.8,0.77,0.03,-0.03,0.06
17875188,7.73,-7.74,0.85,0.03,-0.05,0.06
17875213,7.72,-7.61,0.99,0.02,-0.05,0.06
17875239,7.77,-7.6,1.07,0.03,-0.05,0.05
17875264,7.78,-7.55,0.97,0.03,-0.06,0.06
17875289,7.43,-7.31,0.85,0.02,-0.07,0.06
17875313,7.29,-7.12,0.7,0.02,-0.06,0.07
17875338,7.36,-7.14,0.73,0.02,-0.05,0.08
17875363,7.58,-7.4,0.62,0.01,-0.04,0.09
17875389,7.48,-7.51,0.62,0,-0.06,0.09
17875414,7.19,-7.32,0.64,0,-0.06,0.09
17875438,7.11,-7.21,0.64,0.02,-0.05,0.09
17875463,7.48,-7.56,0.59,0,-0.06,0.09
17875488,7.37,-7.61,0.6,-0.01,-0.08,0.08
17875513,7.06,-7.38,0.57,-0.01,-0.09,0.08
17875538,7.19,-7.35,0.55,-0.01,-0.08,0.08
17875564,7.29,-7.35,0.52,0,-0.09,0.07
17875589,7.41,-7.67,0.49,0.01,-0.09,0.07
17875613,7.39,-7.66,0.46,0.01,-0.09,0.06
17875638,7.23,-7.58,0.47,0,-0.09,0.06
17875664,7.41,-7.6,0.47,0.02,-0.07,0.04
17875689,7.58,-7.71,0.45,0.05,-0.06,0.03
17875713,7.45,-7.64,0.51,0.04,-0.04,0.02
17875850,7.59,-7.68,0.52,0.07,-0.04,0.01
17875875,7.64,-7.58,0.6,0.07,-0.03,0.01
17875900,7.65,-7.61,0.5,0.08,-0.02,0.01
17875925,7.54,-7.55,0.62,0.08,-0.02,0.02
17875951,7.46,-7.34,0.59,0.08,-0.03,0.02
17875975,7.38,-7.3,0.51,0.07,-0.03,0.02
17876000,7.26,-7.1,0.61,0.06,-0.05,0.02
17876025,7.5,-7.2,0.67,0.08,-0.03,0.02
17876051,7.59,-7.42,0.54,0.07,-0.03,0.05
17876075,7.42,-7.23,0.64,0.05,-0.05,0.04
17876100,7.36,-7.03,0.64,0.06,-0.03,0.04
17876125,7.19,-6.85,0.61,0.07,-0.04,0.04
17876150,7.16,-6.82,0.74,0.07,-0.05,0.04
17876175,7.55,-7.13,0.63,0.06,-0.03,0.06
17876200,7.4,-7.21,0.56,0.05,-0.06,0.07
17876226,7.24,-6.94,0.63,0.03,-0.06,0.07
17876251,7.04,-6.68,0.59,0.03,-0.05,0.07
17876276,7.03,-6.67,0.66,0.04,-0.05,0.09
17876300,7.19,-6.76,0.65,0.03,-0.07,0.1
17876325,7.09,-6.7,0.5,0.01,-0.08,0.1
17876350,6.99,-6.58,0.61,0,-0.07,0.09
17876375,7.25,-6.66,0.65,0.03,-0.05,0.09
17876401,7.18,-6.75,0.51,0.04,-0.05,0.1
17876426,7.07,-6.8,0.53,0.01,-0.07,0.11
17876450,7.33,-6.85,0.61,0.01,-0.07,0.11
17876475,7.27,-6.85,0.69,0.03,-0.07,0.1
17876500,7.25,-6.97,0.79,0.03,-0.06,0.09
17876525,7.35,-7.02,0.73,0.03,-0.06,0.08
17876550,7.35,-6.95,0.67,0.02,-0.08,0.06
17876576,7.43,-6.89,0.86,0.03,-0.06,0.04
17876601,7.49,-6.85,0.85,0.07,-0.04,0.04
17876625,7.5,-6.94,0.78,0.07,-0.04,0.04
17876650,7.46,-6.85,0.76,0.06,-0.05,0.03
17876675,7.43,-6.76,0.77,0.06,-0.05,0.02
17876700,7.3,-6.78,0.82,0.09,-0.04,0.02
17876725,7.4,-6.83,0.8,0.09,-0.04,0.02
17876751,7.48,-6.86,0.79,0.08,-0.04,0.02
17876887,7.28,-6.81,0.8,0.05,-0.04,0.05
17876912,7.32,-6.82,0.71,0.02,-0.06,0.05
17876936,7.31,-6.69,0.74,0.03,-0.07,0.05
17876961,7.21,-6.62,0.82,0.06,-0.05,0.04
17876986,7.31,-6.76,0.76,0.06,-0.03,0.05
17877011,7.29,-6.82,0.7,0.03,-0.05,0.05
17877037,7.35,-6.78,0.72,0.03,-0.06,0.04
17877062,7.29,-6.74,0.81,0.05,-0.04,0.03
17877086,7.17,-6.72,0.72,0.06,-0.03,0.03
17877111,7.27,-6.75,0.69,0.05,-0.03,0.03
17877140,7.33,-6.74,0.71,0.05,-0.04,0.02
17877162,7.35,-6.86,0.76,0.05,-0.04,0.02
17877186,7.38,-6.82,0.7,0.04,-0.04,0.01
17877211,7.42,-6.92,0.7,0.06,-0.03,0.01
17877236,7.57,-6.97,0.77,0.07,-0.03,0
17877261,7.62,-7.06,0.79,0.06,-0.03,0
17877286,7.6,-7.06,0.81,0.06,-0.03,0
17877312,7.6,-6.98,0.89,0.07,-0.03,0
17877337,7.61,-6.93,0.83,0.07,-0.03,0
17877361,7.61,-6.98,0.86,0.07,-0.01,0.01
17877386,7.65,-6.92,0.84,0.06,-0.03,0
17877411,7.61,-6.87,0.81,0.05,-0.03,0.01
17877436,7.59,-6.83,0.8,0.05,-0.02,0.01
17877461,7.43,-6.63,0.87,0.06,-0.02,0.03
17877486,7.46,-6.59,0.77,0.06,-0.03,0.03
17877511,7.66,-6.88,0.8,0.05,-0.01,0.04
17877536,7.72,-6.96,0.78,0.04,-0.03,0.04
17877561,7.54,-6.87,0.89,0.04,-0.02,0.05
17877587,7.74,-6.97,0.93,0.04,-0.02,0.05
17877612,7.84,-7.18,0.93,0.03,-0.03,0.06
17877636,7.66,-7.02,0.93,0.02,-0.05,0.05
17877662,7.53,-6.89,1.02,0.02,-0.05,0.04
17877687,7.66,-6.93,0.98,0.02,-0.04,0.04
17877818,7.69,-7.01,0.76,0.03,-0.02,0.04
17877843,7.6,-7.03,0.75,0.01,-0.04,0.05
17877867,7.5,-6.88,0.74,0.01,-0.05,0.03
17877892,7.31,-6.59,0.79,0.03,-0.02,0.03
17877917,7.49,-6.78,0.78,0.04,0,0.03
17877942,7.39,-6.81,0.61,0.02,-0.02,0.03
17877967,7.2,-6.73,0.59,0.01,-0.03,0.04
17877992,7.28,-6.45,0.68,0.03,-0.02,0.03
17878018,7.57,-6.73,0.79,0.04,0,0.02
17878043,7.56,-6.97,0.71,0.03,-0.01,0.02
17878067,7.35,-6.81,0.69,0.02,-0.03,0.02
17878092,7.29,-6.61,0.66,0.02,-0.02,0.03
17878118,7.34,-6.59,0.74,0.03,-0.01,0.03
17878142,7.38,-6.74,0.74,0.04,-0.01,0.04
17878167,7.61,-7.06,0.58,0.01,-0.03,0.06
17878192,7.49,-7.1,0.57,-0.03,-0.05,0.06
17878217,7.5,-7.04,0.54,-0.03,-0.03,0.06
17878242,7.71,-7.13,0.6,0.01,-0.02,0.06
17878267,7.85,-7.46,0.61,0,-0.02,0.08
17878292,7.83,-7.63,0.53,-0.03,-0.05,0.09
17878317,7.71,-7.46,0.57,-0.04,-0.06,0.1
17878343,7.68,-7.43,0.61,-0.02,-0.05,0.11
17878367,7.86,-7.65,0.52,-0.01,-0.03,0.12
17878392,7.65,-7.75,0.55,-0.03,-0.05,0.12
17878418,7.61,-7.64,0.45,-0.05,-0.06,0.12
17878442,7.54,-7.43,0.5,-0.03,-0.05,0.11
17878467,7.82,-7.69,0.52,0.01,-0.02,0.12
17878492,8.08,-8.02,0.47,0.01,-0.02,0.12
17878517,7.72,-7.74,0.47,0.01,-0.03,0.09
17878543,7.38,-7.17,0.49,0.03,-0.02,0.05
17878567,7.34,-6.91,0.62,0.09,0.01,0.02
17878596,7.33,-7.02,0.68,0.11,0.03,0.01
17878618,7.36,-7.18,0.57,0.09,0.02,0.01
17878642,7.21,-6.98,0.44,0.07,0,0
17878667,7.01,-6.55,0.53,0.07,0,-0.02
17878692,6.96,-6.38,0.66,0.11,0.02,-0.03
17878720,7.1,-6.51,0.59,0.11,0.03,-0.02
17878855,6.9,-6.31,0.66,0.04,-0.03,0.05
17878879,6.94,-6.23,0.53,0.01,-0.04,0.06
17878904,6.92,-6.28,0.62,0.02,-0.05,0.06
17878929,6.96,-6.41,0.64,0,-0.05,0.07
17878955,7,-6.48,0.55,-0.01,-0.06,0.08
17878980,6.82,-6.4,0.48,-0.01,-0.06,0.08
17879004,6.89,-6.38,0.55,0,-0.06,0.07
17879029,7,-6.51,0.54,0.01,-0.05,0.07
17879055,7.03,-6.75,0.47,0.01,-0.04,0.07
17879079,7.01,-6.84,0.42,-0.01,-0.05,0.08
17879104,7.19,-7.05,0.37,-0.01,-0.04,0.08
17879129,7.22,-7.21,0.39,0,-0.04,0.08
17879155,7.01,-7.16,0.46,0.02,-0.05,0.07
17879179,7.06,-7.17,0.41,0.02,-0.03,0.06
17879204,7.11,-7.3,0.4,0.02,-0.02,0.06
17879229,7.12,-7.33,0.33,0.01,-0.03,0.06
17879254,6.98,-7.29,0.26,0.01,-0.03,0.05
17879280,6.98,-7.3,0.3,0.02,-0.03,0.04
17879304,7.04,-7.37,0.32,0.02,-0.03,0.04
17879329,7.08,-7.41,0.29,0.02,-0.04,0.03
17879355,7.12,-7.46,0.28,0.02,-0.04,0.03
17879379,7.08,-7.28,0.24,0.03,-0.05,0.01
17879404,7.1,-7.32,0.3,0.06,-0.02,0
17879429,6.87,-7.03,0.27,0.07,-0.03,-0.02
17879457,6.6,-6.6,0.33,0.08,0,-0.04
17879481,6.82,-6.79,0.28,0.11,0.01,-0.03
17879506,7.19,-6.96,0.29,0.11,0.01,-0.04
17879532,7.16,-7.04,0.37,0.12,0,-0.04
17879556,6.99,-6.9,0.42,0.12,0,-0.05
17879582,6.93,-6.69,0.48,0.11,0,-0.06
17879606,7.11,-6.65,0.62,0.12,0.01,-0.06
17879631,7.39,-6.98,0.63,0.12,0.01,-0.04
17879656,7.31,-7.08,0.56,0.1,-0.03,-0.03
17879682,7.03,-6.75,0.58,0.07,-0.05,-0.02
17879708,7.25,-6.82,0.74,0.08,-0.02,0
17879732,7.56,-7.05,0.65,0.07,-0.03,0.01
17879757,7.35,-6.94,0.64,0.05,-0.05,0.02
17879891,7.15,-6.79,0.51,-0.02,-0.07,0.08
17879915,7.29,-6.89,0.61,0,-0.06,0.09
17879941,7.48,-7.18,0.53,0,-0.05,0.09
17879966,7.31,-7.22,0.42,-0.02,-0.07,0.1
17879991,6.99,-6.79,0.44,-0.02,-0.08,0.08
17880016,7.13,-6.78,0.54,0.01,-0.05,0.07
17880041,7.35,-7.02,0.51,0.01,-0.04,0.07
17880065,7.31,-7.12,0.54,0.01,-0.06,0.08
17880091,7.44,-7.24,0.45,0,-0.07,0.07
17880115,7.45,-7.14,0.71,-0.01,-0.06,0.06
17880141,7.61,-7.49,0.6,0,-0.04,0.08
17880166,7.69,-7.67,0.58,0,-0.07,0.09
17880194,7.7,-7.56,0.67,-0.02,-0.09,0.08
17880218,7.88,-7.68,0.78,-0.02,-0.06,0.08
17880243,7.97,-7.79,0.73,-0.02,-0.08,0.08
17880269,8,-7.79,0.74,-0.03,-0.08,0.09
17880294,8.05,-7.77,0.83,-0.02,-0.07,0.09
17880318,8.4,-8.19,0.76,-0.04,-0.07,0.12
17880343,8.37,-8.22,0.69,-0.06,-0.1,0.12
17880368,8.35,-8.15,0.78,-0.04,-0.09,0.11
17880394,8.5,-8.32,0.82,-0.03,-0.07,0.13
17880418,8.65,-8.56,0.71,-0.06,-0.08,0.14
17880443,8.92,-8.73,0.72,-0.05,-0.08,0.14
17880468,9.05,-9,0.84,-0.05,-0.08,0.15
17880494,9.21,-9.25,0.79,-0.06,-0.09,0.16
17880518,9.21,-9.21,0.81,-0.06,-0.09,0.15
17880543,9.15,-9.29,0.74,-0.04,-0.07,0.14
17880569,9.01,-9.19,0.75,-0.03,-0.08,0.14
17880594,8.71,-8.88,0.77,-0.02,-0.08,0.13
17880618,8.61,-8.77,0.68,0,-0.06,0.12
17880643,8.57,-8.65,0.55,0,-0.05,0.1
17880668,8.33,-8.42,0.48,0.01,-0.04,0.08
17880693,8.03,-8.15,0.48,0.04,-0.01,0.06
17880827,7.33,-7.37,0.41,0.11,0.04,0.01
17880851,7.33,-7.27,0.5,0.11,0.05,0.01
17880876,7.58,-7.52,0.45,0.1,0.05,0.02
17880901,7.35,-7.37,0.33,0.07,0.01,0.02
17880934,7.03,-7.05,0.4,0.05,0,0.03
17880954,7.35,-7.1,0.39,0.07,0.01,0.04
17880979,7.32,-7.18,0.35,0.06,0,0.05
17881004,7.17,-7.32,0.34,0.03,-0.02,0.07
17881030,7.19,-7.2,0.19,0.01,-0.04,0.08
17881055,7.19,-7.12,0.31,0.02,-0.04,0.07
17881079,7.31,-7.26,0.46,0.05,-0.03,0.06
17881104,7.25,-7.28,0.38,0.06,-0.02,0.05
17881129,6.74,-6.72,0.15,0.05,-0.04,0.03
17881155,6.47,-6.33,0.29,0.08,-0.03,0.01
17881187,6.76,-6.4,0.37,0.11,-0.01,0
17881211,6.77,-6.5,0.22,0.08,-0.02,0
17881237,6.68,-6.26,0.3,0.08,-0.03,-0.02
17881262,6.69,-6.19,0.45,0.11,0,-0.03
17881287,6.93,-6.41,0.36,0.12,0.01,-0.03
17881313,6.86,-6.31,0.41,0.13,-0.01,-0.04
17881338,6.73,-6.19,0.45,0.13,-0.01,-0.05
17881363,6.55,-6.06,0.45,0.13,0,-0.04
17881389,6.74,-6.29,0.47,0.11,0.01,-0.01
17881414,6.95,-6.62,0.47,0.08,-0.01,0.02
17881439,7.12,-7,0.37,0.03,-0.03,0.07
17881464,7.38,-7.22,0.35,-0.02,-0.07,0.08
17881489,7.47,-7.41,0.45,-0.01,-0.07,0.09
17881513,7.55,-7.64,0.82,-0.01,-0.07,0.11
17881539,8.56,-8.71,0.8,-0.03,-0.06,0.17
17881564,8.61,-8.83,0.49,-0.09,-0.11,0.2
17881589,7.58,-8.07,0.64,-0.09,-0.15,0.17
17881614,7.91,-8.17,0.84,-0.04,-0.11,0.16
17881639,8.77,-8.81,0.78,-0.04,-0.09,0.19
17881666,9,-9.43,0.51,-0.12,-0.09,0.22
17881691,8.64,-9.19,0.32,-0.13,-0.13,0.21
17881717,8.31,-8.75,0.5,-0.06,-0.15,0.18
17881873,8.17,-8.82,0.41,0.03,-0.02,0.11
17881898,8.11,-8.71,0.34,0.03,-0.05,0.08
17881923,7.88,-8.36,0.45,0.04,-0.04,0.05
17881949,7.66,-7.93,0.61,0.07,-0.01,0.03
17881974,7.65,-7.86,0.54,0.09,0.03,0.04
17881998,7.59,-7.88,0.29,0.09,0.02,0.04
17882023,7.43,-7.59,0.27,0.06,-0.03,0.03
17882048,7.61,-7.55,0.58,0.09,-0.01,0.02
17882074,8.13,-7.96,0.51,0.08,0.01,0.02
17882098,7.81,-7.85,0.39,0.08,0.01,0.02
17882123,7.61,-7.6,0.51,0.09,0,0.02
17882148,7.68,-7.62,0.5,0.09,-0.01,0.03
17882173,7.62,-7.64,0.5,0.05,-0.03,0.04
17882198,7.72,-7.66,0.28,0.03,-0.06,0.04
17882223,7.33,-7.52,0.29,0.03,-0.04,0.05
17882248,7.03,-7.14,0.25,0.04,-0.05,0.04
17882273,7.45,-7.36,0.25,0.03,-0.04,0.05
17882299,7.41,-7.58,0.14,0.01,-0.05,0.07
17882323,7.15,-7.48,0.17,0.01,-0.05,0.07
17882348,7.23,-7.33,0.2,0.03,-0.05,0.06
17882373,7.54,-7.75,0.24,0.02,-0.02,0.08
17882405,7.15,-7.63,0.17,0.03,-0.04,0.07
17882427,7.23,-7.55,0.08,0.02,-0.04,0.06
17882451,7.24,-7.4,0.21,0.02,-0.05,0.05
17882476,6.92,-7.2,0.28,0.05,-0.03,0.03
17882501,7.05,-7.37,0.11,0.06,-0.02,0.04
17882526,7.23,-7.51,0,0.04,-0.05,0.05
17882551,7.03,-7.3,0.22,0.04,-0.05,0.03
17882576,6.83,-7.13,0.23,0.07,-0.01,0.02
17882601,6.85,-7.14,0.07,0.05,-0.02,0.03
17882626,6.87,-7.13,0.12,0.05,-0.04,0.03
17882657,7.01,-7.13,0.18,0.08,-0.02,0.03
17882678,7.07,-7.32,0.07,0.08,-0.01,0.03
17882807,6.95,-7.38,0.17,0.05,-0.05,0.04
17882831,6.9,-7.22,0.07,0.05,-0.06,0.03
17882856,6.94,-6.97,0.18,0.07,-0.04,0
17882881,7.28,-7.39,0.23,0.09,-0.01,0.01
17882906,7.13,-7.47,0.18,0.07,-0.04,0.02
17882931,7.07,-7.26,0.19,0.06,-0.04,0.01
17882957,7.01,-7,0.25,0.08,-0.03,0.01
17882982,7.09,-7.21,0.32,0.1,-0.02,0.01
17883006,7.16,-7.23,0.26,0.09,-0.03,0.02
17883031,6.96,-6.99,0.27,0.09,-0.04,0.01
17883056,6.92,-7.11,0.24,0.08,-0.03,0.03
17883082,6.69,-6.69,0.22,0.07,-0.06,0.01
17883107,6.61,-6.48,0.24,0.08,-0.04,0
17883131,6.69,-6.47,0.34,0.1,-0.03,-0.01
17883156,6.81,-6.56,0.27,0.1,-0.03,0
17883182,6.92,-6.62,0.17,0.11,-0.03,-0.01
17883207,6.59,-6.27,0.2,0.1,-0.04,-0.03
17883231,6.39,-6,0.24,0.11,-0.03,-0.05
17883256,6.5,-5.99,0.28,0.15,-0.02,-0.06
17883281,6.46,-5.98,0.27,0.14,-0.03,-0.06
17883307,6.43,-5.91,0.21,0.13,-0.03,-0.07
17883331,6.5,-5.86,0.2,0.12,-0.03,-0.07
17883360,6.51,-5.76,0.2,0.14,-0.04,-0.08
17883384,6.51,-5.74,0.33,0.16,-0.03,-0.09
17883408,6.61,-5.85,0.29,0.16,-0.01,-0.08
17883434,6.59,-5.78,0.26,0.13,-0.03,-0.07
17883459,6.56,-5.71,0.4,0.14,-0.03,-0.06
17883483,6.58,-5.75,0.34,0.11,-0.04,-0.04
17883508,6.58,-5.76,0.38,0.1,-0.05,-0.03
17883534,6.71,-5.86,0.38,0.09,-0.04,-0.02
17883559,6.67,-5.81,0.37,0.07,-0.05,0
17883583,6.63,-5.81,0.36,0.05,-0.06,0.02
17883608,6.52,-5.73,0.39,0.05,-0.07,0.04
17883634,6.81,-6.04,0.26,0.02,-0.07,0.06
17883659,7.02,-6.33,0.32,0.01,-0.1,0.08
17883685,6.89,-6.23,0.44,0.01,-0.09,0.09
17883710,6.71,-6.11,0.38,0.01,-0.09,0.1
17883845,6.82,-5.85,0.41,-0.01,-0.07,0.1
17883869,7.19,-6.09,0.56,0.05,-0.06,0.09
17883894,7.32,-6.47,0.54,0.04,-0.06,0.1
17883919,7.13,-6.31,0.55,0.01,-0.07,0.1
17883945,7.35,-6.35,0.65,0.01,-0.06,0.09
17883969,7.61,-6.59,0.64,0.02,-0.05,0.1
17883994,7.66,-6.71,0.75,0.02,-0.06,0.08
17884019,7.61,-6.7,0.75,0.02,-0.05,0.08
17884044,7.69,-6.84,0.81,0.03,-0.04,0.09
17884069,7.99,-6.96,0.91,0.02,-0.06,0.08
17884095,8.07,-7.01,1.02,0.02,-0.06,0.08
17884120,7.72,-7.06,0.93,0.01,-0.06,0.09
17884145,7.69,-7.02,0.84,0.01,-0.06,0.09
17884170,8.03,-6.93,0.93,0.02,-0.05,0.1
17884196,8.07,-7.15,1.04,0.01,-0.05,0.09
17884221,7.95,-7.24,0.93,0,-0.06,0.1
17884245,7.71,-6.78,0.81,-0.03,-0.09,0.08
17884270,7.5,-6.53,0.98,0,-0.04,0.09
17884295,7.84,-6.86,0.84,0.02,-0.04,0.11
17884320,7.84,-6.81,0.72,0,-0.06,0.11
17884345,7.69,-6.77,0.85,-0.01,-0.05,0.11
17884371,7.68,-6.77,0.91,-0.01,-0.02,0.12
17884397,7.7,-6.85,0.78,-0.01,-0.03,0.14
17884422,7.47,-6.69,0.73,-0.03,-0.04,0.14
17884446,7.33,-6.54,0.95,-0.02,-0.03,0.14
17884471,7.58,-6.88,0.79,-0.04,-0.03,0.17
17884496,7.3,-6.91,0.63,-0.06,-0.05,0.18
17884522,7.29,-6.8,0.53,-0.08,-0.05,0.17
17884550,7.66,-6.93,0.69,-0.07,-0.05,0.15
17884571,7.49,-7.04,0.56,-0.06,-0.05,0.16
17884596,7.24,-7.01,0.6,-0.05,-0.05,0.16
17884621,7.68,-7.34,0.54,-0.05,-0.06,0.16
17884646,7.58,-7.41,0.55,-0.05,-0.06,0.14
17884671,7.68,-7.5,0.52,-0.04,-0.06,0.13
17884696,7.64,-7.45,0.59,0,-0.07,0.1
17884721,7.52,-7.48,0.47,-0.02,-0.06,0.08
17884746,7.44,-7.2,0.44,-0.02,-0.07,0.06
17884889,7.69,-6.75,0.76,0.12,0.02,-0.05
17884913,7.5,-6.39,0.8,0.14,0.02,-0.07
17884938,7.38,-6.06,0.84,0.15,0.02,-0.08
17884963,7.35,-5.97,0.85,0.16,0.03,-0.08
17884989,7.19,-5.78,0.74,0.14,0.02,-0.08
17885013,7.2,-5.69,0.74,0.14,0.01,-0.07
17885039,7.11,-5.49,0.67,0.13,0,-0.07
17885064,7.03,-5.25,0.76,0.13,-0.01,-0.06
17885088,6.51,-5.45,0.92,0.18,-0.04,-0.02
17885113,7.29,-5.45,0.8,0.11,0.01,-0.02
17885138,7.58,-5.73,0.87,0.1,0,0
17885163,7.6,-5.78,0.87,0.08,0,0.01
17885189,7.56,-5.85,0.95,0.08,-0.01,0.03
17885213,7.59,-6.02,0.96,0.07,-0.01,0.05
17885238,7.68,-6.2,1.02,0.04,-0.01,0.06
17885267,8.13,-6.58,1.02,0,-0.01,0.07
17885288,8.26,-6.89,1,-0.02,-0.02,0.08
17885313,7.96,-6.92,1,-0.04,-0.03,0.1
17885338,7.88,-7,0.88,-0.06,-0.04,0.11
17885363,7.97,-7.1,0.72,-0.08,-0.05,0.13
17885389,8.01,-7.11,0.73,-0.08,-0.07,0.13
17885413,7.98,-7.21,0.68,-0.09,-0.07,0.13
17885438,7.74,-7.22,0.59,-0.09,-0.06,0.15
17885464,7.51,-7.15,0.47,-0.1,-0.06,0.18
17885489,7.47,-7.22,0.27,-0.1,-0.07,0.18
17885513,7.38,-7.01,0.22,-0.1,-0.08,0.14
17885538,7.12,-6.96,0.31,-0.08,-0.06,0.14
17885564,7.35,-7.38,0.28,-0.04,-0.02,0.14
17885592,7.55,-7.7,0.04,-0.04,-0.02,0.15
17885613,7.42,-7.72,0.05,-0.05,-0.03,0.13
17885638,7.54,-7.96,0.08,-0.04,-0.01,0.1
17885663,7.61,-8.07,0.06,-0.02,-0.02,0.09
17885688,7.36,-7.94,0.06,-0.01,-0.02,0.07
17885827,7.23,-7.54,-0.16,0.05,-0.02,0.01
17885852,7.24,-7.36,-0.26,0.06,-0.03,0
17885877,7.08,-7.31,-0.16,0.06,0.01,0.02
17885901,6.99,-7.24,-0.19,0.08,-0.01,0.02
17885926,6.86,-7.11,-0.07,0.08,0,0.03
17885955,7.13,-7.35,-0.08,0.07,0.01,0.04
17885976,7.16,-7.41,-0.18,0.07,-0.01,0.04
17886001,6.79,-6.97,-0.08,0.08,-0.02,0.03
17886026,6.9,-6.97,0.16,0.11,0.02,0.02
17886052,7.18,-7.26,0.1,0.11,0.01,0.04
17886077,7.04,-7.26,-0.01,0.07,-0.01,0.06
17886102,7.06,-7.25,-0.08,0.06,-0.02,0.08
17886126,7.09,-7.16,0.13,0.06,-0.04,0.08
17886151,7.31,-7.29,0.34,0.06,-0.02,0.08
17886176,7.6,-7.74,0.23,0.06,0,0.09
17886201,7.7,-8.01,0.09,0.04,-0.03,0.11
17886226,7.38,-7.66,0.17,0.03,-0.06,0.11
17886251,7.45,-7.51,0.36,0.06,-0.04,0.08
17886277,7.34,-7.32,0.42,0.06,-0.02,0.06
17886302,7.69,-7.67,0.33,0.04,-0.03,0.07
17886329,7.5,-7.52,0.27,0.04,-0.06,0.08
17886354,7.3,-7.21,0.33,0.05,-0.06,0.06
17886379,7.35,-7.11,0.35,0.07,-0.03,0.04
17886404,7.08,-6.89,0.21,0.07,-0.02,0.04
17886429,6.85,-6.87,0.07,0.07,-0.02,0.05
17886454,6.71,-6.67,0.03,0.05,-0.05,0.03
17886479,6.6,-6.5,0.09,0.06,-0.02,0.03
17886505,6.39,-6.45,0,0.09,0,0.03
17886530,6.21,-6.46,-0.13,0.07,-0.02,0.04
17886554,6.15,-6.3,-0.19,0.06,-0.05,0.02
17886580,6.08,-6.1,-0.13,0.07,-0.03,0
17886605,5.94,-5.94,-0.14,0.08,-0.01,-0.01
17886631,5.68,-5.77,-0.26,0.09,-0.02,-0.02
17886655,5.58,-5.54,-0.23,0.09,-0.03,-0.04
17886680,5.81,-5.64,-0.16,0.1,-0.02,-0.05
17886705,6.03,-5.7,-0.26,0.09,-0.02,-0.05
17886730,6.07,-5.64,-0.31,0.11,-0.02,-0.06
17886863,6.29,-6.05,0,0.11,-0.03,-0.03
17886887,6.1,-5.91,0.11,0.12,-0.04,-0.03
17886912,6.19,-5.93,0.23,0.11,-0.04,-0.03
17886938,6.55,-6.27,0.14,0.08,-0.04,-0.02
17886963,6.52,-6.32,0.15,0.06,-0.07,-0.02
17886987,6.56,-6.34,0.18,0.06,-0.08,-0.02
17887012,6.78,-6.55,0.26,0.06,-0.07,-0.01
17887037,6.81,-6.63,0.2,0.06,-0.07,0
17887066,6.89,-6.8,0.17,0.05,-0.08,0
17887090,6.77,-6.77,0.18,0.07,-0.08,0
17887115,6.65,-6.61,0.22,0.06,-0.07,0
17887140,6.81,-6.58,0.17,0.07,-0.06,-0.01
17887165,7.01,-6.74,0.17,0.08,-0.07,-0.01
17887191,7,-6.73,0.29,0.09,-0.06,-0.02
17887216,7.21,-6.78,0.24,0.09,-0.05,-0.02
17887240,7.21,-6.88,0.2,0.08,-0.05,-0.02
17887265,6.94,-6.6,0.3,0.09,-0.04,-0.03
17887290,7.13,-6.64,0.31,0.11,-0.04,-0.02
17887317,7.06,-6.52,0.36,0.1,-0.05,-0.02
17887342,7.03,-6.51,0.47,0.1,-0.04,-0.02
17887366,6.98,-6.35,0.42,0.1,-0.05,-0.02
17887391,6.93,-6.2,0.39,0.1,-0.05,-0.01
17887416,6.53,-5.8,0.54,0.11,-0.05,0
17887441,6.65,-5.88,0.57,0.11,-0.02,0
17887466,6.88,-6,0.31,0.1,-0.04,0
17887491,6.84,-5.95,0.48,0.1,-0.04,0.01
17887516,7.08,-6.25,0.57,0.1,-0.03,0.02
17887541,7.2,-6.31,0.59,0.09,-0.04,0.02
17887566,7.19,-6.3,0.72,0.11,-0.04,0.02
17887592,7.24,-6.45,0.88,0.11,-0.04,0.03
17887616,7.52,-6.57,0.77,0.07,-0.05,0.04
17887645,7.48,-6.49,0.93,0.07,-0.07,0.04
17887667,7.8,-6.69,1.08,0.07,-0.06,0.04
17887692,8,-6.84,0.98,0.06,-0.07,0.05
17887717,7.7,-6.59,1,0.05,-0.09,0.03
17887741,7.81,-6.58,1.07,0.06,-0.07,0.02
17887766,8.07,-6.69,1.06,0.07,-0.07,0.02
17887903,8.57,-6.72,1.26,0.04,-0.06,0.05
17887927,8.63,-6.84,1.22,0.03,-0.07,0.05
17887952,8.4,-6.67,1.16,0.02,-0.08,0.06
17887977,8.2,-6.46,1.26,0.02,-0.08,0.07
17888002,8.23,-6.53,1.31,0.02,-0.07,0.09
17888027,8.42,-6.84,1.2,0,-0.06,0.1
17888053,8.54,-6.93,1.09,-0.03,-0.08,0.12
17888077,8.56,-6.96,1.2,-0.06,-0.08,0.13
17888102,8.49,-7,1.29,-0.07,-0.08,0.14
17888127,8.44,-7.03,1.26,-0.06,-0.07,0.14
17888152,8.37,-7.11,1.23,-0.06,-0.06,0.15
17888177,8.42,-7.21,1.14,-0.07,-0.06,0.17
17888202,8.33,-7.22,1.08,-0.08,-0.07,0.16
17888227,8.22,-7.17,1.04,-0.06,-0.07,0.14
17888252,8.12,-7.21,1.04,-0.05,-0.05,0.14
17888277,8.15,-7.14,1,-0.05,-0.05,0.13
17888302,8.22,-7.1,0.93,-0.04,-0.04,0.11
17888328,8.21,-7.14,0.91,-0.04,-0.02,0.11
17888356,7.89,-6.95,0.91,-0.04,-0.05,0.12
17888377,8.06,-7.09,0.8,-0.05,-0.05,0.12
17888402,8.24,-7.22,0.86,-0.06,-0.05,0.1
17888427,8.4,-7.27,0.94,-0.05,-0.03,0.07
17888452,8.26,-7.37,0.9,-0.03,-0.01,0.06
17888477,8.24,-7.39,0.85,-0.02,-0.02,0.07
17888502,8.1,-7.17,0.89,-0.01,-0.03,0.05
17888528,8.03,-6.96,0.86,0.01,-0.02,0.05
17888553,8.02,-6.91,0.9,0.02,-0.01,0.06
17888577,8.1,-6.98,0.88,0,-0.01,0.07
17888602,8.11,-7.06,0.78,-0.01,-0.01,0.08
17888627,7.77,-6.78,0.81,-0.02,-0.01,0.08
17888652,7.64,-6.69,0.81,0,-0.01,0.08
17888677,7.72,-6.76,0.74,-0.01,-0.01,0.09
17888702,7.56,-6.75,0.75,-0.02,0,0.11
17888841,7.1,-6.78,0.25,-0.05,-0.01,0.12
17888865,6.89,-6.71,0.24,-0.05,-0.02,0.12
17888890,6.96,-6.78,0.27,-0.04,-0.01,0.11
17888916,7.08,-6.85,0.23,-0.02,0,0.1
17888941,6.81,-6.73,0.15,-0.05,-0.01,0.09
17888965,6.79,-6.75,0.13,-0.05,-0.02,0.08
17888990,6.85,-6.96,0.1,-0.03,-0.01,0.08
17889015,6.78,-6.96,0.05,-0.04,-0.02,0.08
17889040,6.59,-6.83,0.06,-0.04,-0.03,0.07
17889065,6.69,-7.05,0.05,-0.02,-0.01,0.07
17889091,6.6,-7.12,-0.05,-0.02,-0.01,0.05
17889116,6.61,-7.19,0.04,0,0,0.03
17889140,6.64,-7.11,-0.04,0.01,0,0.01
17889165,6.71,-7.1,-0.01,0.02,0,0.01
17889190,6.7,-6.99,0.05,0.02,0,0
17889216,6.87,-6.95,0.1,0.04,0,0.01
17889240,6.77,-6.89,0.08,0.02,0,0.02
17889265,6.78,-6.99,0.09,0.01,0.01,0.03
17889290,7.06,-7.27,0.03,0.02,0.01,0.04
17889315,7.03,-7.32,0.08,0.01,-0.02,0.04
17889340,6.97,-7.46,0.14,0.01,-0.03,0.05
17889366,7.12,-7.54,0.13,0.02,-0.03,0.05
17889391,7.12,-7.61,0.12,0.01,-0.03,0.05
17889415,7.04,-7.65,0.1,0.01,-0.04,0.06
17889440,6.93,-7.5,0.12,0.04,-0.06,0.05
17889465,6.84,-7.33,0.13,0.05,-0.06,0.03
17889491,7.11,-7.47,0.17,0.03,-0.04,0.02
17889519,7.35,-7.69,0.07,0.02,-0.06,0.02
17889541,7.26,-7.6,0.12,0.03,-0.07,0.02
17889566,7.3,-7.57,0.17,0.04,-0.07,0.01
17889590,7.51,-7.58,0.14,0.04,-0.06,0.02
17889615,7.48,-7.7,0.08,0.03,-0.05,0.04
17889640,7.19,-7.62,0.1,0.02,-0.06,0.05
17889666,7.45,-7.7,0.22,0.03,-0.06,0.05
17889690,7.65,-8.04,0.12,0,-0.06,0.07
17889715,7.55,-8.01,0.06,-0.01,-0.07,0.08
17889740,7.57,-7.91,0.12,0,-0.08,0.06
17889882,7.78,-8.19,0.17,0.01,-0.07,0.09
17889906,7.87,-8.38,0.17,0.02,-0.06,0.09
17889931,7.69,-8.44,0.1,0,-0.06,0.09
17889956,7.6,-8.24,0.06,0.02,-0.06,0.09
17889981,7.53,-8.09,0.13,0.04,-0.06,0.07
17890010,7.55,-8.18,0.12,0.05,-0.03,0.07
17890035,7.6,-8.16,0.04,0.04,-0.04,0.07
17890057,7.58,-8.04,-0.04,0.04,-0.07,0.06
17890082,7.5,-7.9,0.14,0.06,-0.05,0.04
17890106,7.45,-7.88,0.18,0.07,-0.03,0.04
17890131,7.5,-7.87,0.18,0.08,-0.03,0.04
17890156,7.33,-7.78,0.13,0.07,-0.04,0.05
17890182,7.41,-7.78,0.13,0.08,-0.04,0.04
17890206,7.46,-7.65,0.26,0.09,-0.04,0.02
17890231,7.45,-7.64,0.24,0.09,-0.03,0.02
17890257,7.36,-7.49,0.18,0.09,-0.04,0.01
17890282,7.37,-7.39,0.25,0.09,-0.04,0
17890306,7.54,-7.42,0.37,0.1,-0.03,0
17890331,7.58,-7.55,0.37,0.09,-0.03,0.02
17890356,7.41,-7.39,0.29,0.07,-0.05,0.03
17890382,7.36,-7.18,0.31,0.08,-0.06,0.02
17890406,7.35,-7.16,0.41,0.09,-0.05,0.02
17890431,7.45,-7.29,0.32,0.07,-0.04,0.02
17890456,7.43,-7.19,0.37,0.07,-0.04,0.02
17890481,7.52,-7.33,0.33,0.07,-0.05,0.02
17890507,7.49,-7.42,0.34,0.06,-0.05,0.03
17890533,7.32,-7.19,0.42,0.07,-0.05,0.04
17890558,7.32,-7.12,0.39,0.06,-0.04,0.04
17890582,7.43,-7.42,0.4,0.04,-0.06,0.06
17890607,7.67,-7.55,0.4,0.03,-0.07,0.07
17890633,7.63,-7.63,0.38,0.03,-0.06,0.07
17890658,7.61,-7.78,0.3,0.02,-0.07,0.07
17890682,7.58,-7.6,0.44,0.02,-0.08,0.07
17890815,7.2,-7.07,0.41,0.05,-0.06,0.02
17890839,7.43,-7.23,0.52,0.09,-0.01,0
17890864,7.23,-7.27,0.31,0.08,-0.03,0.02
17890889,7.07,-6.96,0.26,0.06,-0.06,0.02
17890914,7.02,-6.66,0.41,0.09,-0.04,0
17890939,7.12,-6.72,0.51,0.11,-0.02,-0.02
17890964,7.25,-6.72,0.45,0.1,-0.02,-0.03
17890997,7.2,-6.6,0.45,0.11,-0.01,-0.03
17891018,7.13,-6.52,0.37,0.11,-0.03,-0.03
17891043,7.12,-6.45,0.5,0.11,-0.04,-0.02
17891068,7.38,-6.53,0.65,0.12,-0.03,-0.01
17891093,7.46,-6.59,0.6,0.1,-0.04,-0.01
17891118,7.37,-6.44,0.69,0.08,-0.05,-0.01
17891143,7.32,-6.34,0.68,0.09,-0.05,-0.02
17891169,7.27,-6.32,0.72,0.1,-0.06,-0.02
17891194,7.32,-6.31,0.83,0.09,-0.06,-0.02
17891218,7.5,-6.46,0.8,0.07,-0.06,0.01
17891244,7.59,-6.58,0.64,0.04,-0.08,0.03
17891269,7.57,-6.61,0.71,0.02,-0.11,0.04
17891294,7.67,-6.62,0.8,0.02,-0.09,0.04
17891319,7.74,-6.86,0.72,0.01,-0.08,0.06
17891344,7.74,-7.05,0.61,-0.01,-0.08,0.08
17891369,7.77,-7.12,0.57,-0.02,-0.09,0.1
17891394,7.74,-7.16,0.63,-0.01,-0.09,0.1
17891419,7.7,-7.14,0.62,-0.02,-0.07,0.1
17891445,7.61,-7.24,0.54,0,-0.05,0.1
17891469,7.58,-7.28,0.49,-0.01,-0.06,0.1
17891494,7.56,-7.18,0.39,-0.02,-0.06,0.1
17891519,7.45,-7.04,0.5,-0.01,-0.06,0.09
17891544,7.71,-7.37,0.51,0,-0.03,0.09
17891569,7.64,-7.46,0.29,-0.01,-0.04,0.12
17891594,7.37,-7.22,0.32,-0.02,-0.07,0.12
17891619,7.33,-7.06,0.43,-0.01,-0.04,0.1
17891644,7.58,-7.37,0.38,-0.01,-0.04,0.11
17891669,7.46,-7.42,0.34,-0.02,-0.06,0.12
17891694,7.3,-7.36,0.34,-0.02,-0.06,0.11
17891719,7.34,-7.31,0.26,-0.01,-0.07,0.11
17891854,6.94,-6.56,0.21,0.03,-0.03,0.08
17891879,6.82,-6.57,0.16,0.03,-0.04,0.08
17891903,6.71,-6.46,0.15,0.02,-0.05,0.07
17891928,6.74,-6.47,0.18,0.03,-0.04,0.08
17891953,6.76,-6.52,0.2,0.03,-0.03,0.08
17891980,6.93,-6.74,0.25,0.03,-0.03,0.08
17892005,6.99,-6.75,0.24,0.02,-0.05,0.08
17892030,6.82,-6.62,0.43,0.02,-0.05,0.07
17892054,7.02,-6.72,0.35,0.04,-0.03,0.06
17892079,7.08,-6.68,0.42,0.05,-0.03,0.06
17892105,6.98,-6.68,0.5,0.05,-0.03,0.06
17892130,7.05,-6.77,0.39,0.06,-0.04,0.06
17892154,6.96,-6.61,0.4,0.04,-0.05,0.04
17892179,6.63,-6.19,0.49,0.03,-0.06,0.03
17892204,6.92,-6.32,0.54,0.06,-0.02,0.04
17892230,7.1,-6.58,0.4,0.05,-0.02,0.06
17892254,6.88,-6.55,0.44,0.02,-0.04,0.06
17892279,6.86,-6.39,0.47,0.02,-0.05,0.04
17892304,6.9,-6.37,0.6,0.02,-0.03,0.04
17892329,7.01,-6.65,0.47,0.02,-0.02,0.07
17892354,7.21,-7.02,0.27,0,-0.05,0.09
17892379,7.28,-7.14,0.48,-0.01,-0.07,0.09
17892404,7.3,-7.15,0.57,-0.01,-0.07,0.08
17892429,7.31,-7.49,0.42,-0.01,-0.07,0.09
17892454,7.12,-7.33,0.36,-0.01,-0.09,0.07
17892479,7.27,-7.4,0.33,-0.01,-0.09,0.06
17892504,7.35,-7.55,0.37,-0.01,-0.08,0.04
17892529,7.42,-7.71,0.3,0,-0.07,0.04
17892554,7.48,-7.78,0.16,0,-0.08,0.04
17892579,7.47,-7.7,0.15,0,-0.09,0.02
17892604,7.53,-7.59,0.35,0.04,-0.06,0
17892629,7.77,-7.78,0.33,0.06,-0.02,0.01
17892654,7.62,-7.97,0.16,0.05,-0.03,0.02
17892679,7.69,-7.97,0.21,0.03,-0.05,0.01
17892708,7.92,-7.97,0.31,0.05,-0.06,-0.01
17892730,7.77,-8.12,0.39,0.06,-0.03,0
17892755,7.8,-8.12,0.34,0.05,-0.02,0
17892901,7.53,-7.58,0.29,0.08,-0.02,-0.01
17892925,7.79,-7.84,0.35,0.1,0.02,0
17892950,7.67,-7.85,0.32,0.09,0,0.01
17892975,7.4,-7.73,0.25,0.08,-0.02,0.01
17893001,7.39,-7.38,0.3,0.08,-0.02,0
17893025,7.45,-7.37,0.39,0.1,0,-0.01
17893050,7.49,-7.44,0.33,0.1,0,0
17893075,7.34,-7.35,0.21,0.07,-0.03,0
17893100,7.44,-7.26,0.41,0.08,-0.02,-0.01
17893126,7.63,-7.45,0.51,0.11,0,0
17893150,7.74,-7.61,0.38,0.1,-0.01,0.02
17893175,7.49,-7.4,0.36,0.07,-0.02,0.01
17893202,7.34,-7.2,0.39,0.06,-0.03,0.01
17893227,7.63,-7.37,0.54,0.08,-0.02,0.02
17893253,7.71,-7.65,0.43,0.06,-0.03,0.04
17893278,7.5,-7.55,0.32,0.03,-0.06,0.05
17893302,7.57,-7.39,0.45,0.04,-0.05,0.04
17893327,7.66,-7.57,0.44,0.06,-0.03,0.04
17893352,7.49,-7.54,0.43,0.05,-0.05,0.05
17893378,7.55,-7.64,0.39,0.04,-0.06,0.05
17893403,7.6,-7.67,0.32,0.04,-0.06,0.06
17893427,7.57,-7.63,0.45,0.03,-0.06,0.05
17893453,7.69,-7.63,0.47,0.04,-0.05,0.03
17893477,7.69,-7.76,0.36,0.05,-0.04,0.04
17893503,7.53,-7.52,0.42,0.04,-0.06,0.03
17893527,7.73,-7.67,0.37,0.05,-0.03,0.03
17893552,7.55,-7.67,0.36,0.05,-0.04,0.03
17893577,7.61,-7.57,0.36,0.05,-0.04,0.03
17893602,7.55,-7.42,0.41,0.07,-0.04,0.02
17893628,7.35,-7.34,0.44,0.07,-0.02,0.03
17893652,7.49,-7.37,0.43,0.08,-0.02,0.02
17893678,7.41,-7.4,0.28,0.08,-0.02,0.03
17893703,7.17,-7.09,0.3,0.05,-0.04,0.03
17893839,7.19,-6.83,0.51,0.05,-0.04,0.05
17893864,6.92,-6.66,0.43,0.03,-0.04,0.07
17893888,7.1,-6.81,0.42,0.03,-0.05,0.08
17893913,7.23,-6.96,0.38,0.03,-0.06,0.08
17893939,7,-6.8,0.4,0.02,-0.06,0.07
17893964,7.28,-7.04,0.4,0.03,-0.05,0.07
17893989,7.01,-6.99,0.42,0.04,-0.06,0.08
17894013,6.83,-6.76,0.32,0.01,-0.07,0.08
17894038,7.27,-6.95,0.33,0.03,-0.07,0.06
17894063,7.21,-7.04,0.33,0.04,-0.08,0.07
17894088,7.05,-6.96,0.35,0.02,-0.07,0.06
17894113,7.25,-7.02,0.37,0.05,-0.06,0.05
17894138,7.12,-6.97,0.26,0.06,-0.06,0.04
17894164,7.19,-6.9,0.4,0.07,-0.05,0.03
17894189,7.45,-7.01,0.44,0.09,-0.03,0.02
17894214,7.46,-7.24,0.39,0.07,-0.04,0.03
17894239,7.16,-7.01,0.38,0.04,-0.05,0.01
17894265,7.37,-6.97,0.48,0.07,-0.03,0
17894289,7.57,-7.13,0.55,0.09,-0.03,0
17894314,7.51,-7.34,0.59,0.07,-0.03,0.01
17894339,7.49,-7.34,0.55,0.07,-0.04,0.02
17894364,7.56,-7.32,0.52,0.05,-0.06,0.02
17894389,7.64,-7.35,0.58,0.04,-0.05,0.02
17894414,7.6,-7.28,0.6,0.05,-0.05,0.02
17894439,7.67,-7.52,0.54,0.06,-0.05,0.03
17894464,7.83,-7.58,0.54,0.04,-0.05,0.04
17894489,7.8,-7.56,0.53,0.03,-0.06,0.04
17894514,7.81,-7.43,0.6,0.04,-0.05,0.03
17894539,7.78,-7.43,0.56,0.05,-0.02,0.03
17894564,7.73,-7.58,0.54,0.05,-0.03,0.04
17894589,7.76,-7.54,0.55,0.05,-0.04,0.04
17894615,7.66,-7.45,0.51,0.04,-0.03,0.04
17894640,7.64,-7.54,0.46,0.04,-0.03,0.04
17894664,7.62,-7.42,0.46,0.03,-0.04,0.03
17894689,7.42,-7.18,0.56,0.06,-0.03,0.03
17894714,7.49,-7.39,0.45,0.06,-0.02,0.03
17894739,7.65,-7.47,0.47,0.03,-0.03,0.03
17894879,7.1,-7.18,0.31,0.03,-0.04,0.03
17894904,7.24,-7.2,0.31,0.03,-0.04,0.04
17894928,7.17,-7.21,0.29,0.03,-0.03,0.04
17894954,7.1,-7.31,0.14,0.02,-0.04,0.05
17894979,7.18,-7.31,0.2,0.02,-0.07,0.05
17895003,7.11,-7.1,0.35,0.02,-0.05,0.04
17895028,7.05,-7.16,0.22,0.03,-0.03,0.04
17895053,7.07,-7.16,0.09,0.03,-0.04,0.04
17895078,7.04,-6.97,0.12,0.03,-0.05,0.03
17895104,6.98,-6.88,0.25,0.04,-0.03,0.03
17895129,7.03,-6.97,0.22,0.06,-0.02,0.03
17895153,7.02,-7.03,0.18,0.05,-0.02,0.04
17895179,6.94,-6.99,0.2,0.03,-0.04,0.05
17895203,6.99,-6.76,0.36,0.05,-0.05,0.04
17895228,7.08,-6.89,0.41,0.05,-0.02,0.04
17895253,6.66,-6.66,0.35,0.03,-0.04,0.04
17895279,6.75,-6.62,0.34,0.02,-0.04,0.05
17895303,7.02,-6.69,0.23,0.02,-0.05,0.07
17895328,6.97,-6.67,0.33,0,-0.06,0.07
17895354,6.94,-6.68,0.39,0.01,-0.05,0.08
17895379,7.13,-6.89,0.28,0.01,-0.05,0.1
17895403,6.99,-6.76,0.34,0,-0.08,0.09
17895428,6.93,-6.73,0.36,-0.01,-0.07,0.1
17895453,7.01,-6.76,0.37,-0.01,-0.07,0.11
17895478,7.31,-7.08,0.28,-0.02,-0.09,0.12
17895504,7.28,-7.14,0.4,-0.02,-0.11,0.11
17895528,7.27,-7.1,0.48,-0.02,-0.08,0.1
17895553,7.43,-7.24,0.35,-0.01,-0.08,0.11
17895579,7.08,-6.98,0.37,0,-0.1,0.11
17895603,7.09,-6.81,0.44,-0.01,-0.08,0.1
17895628,7.5,-7.18,0.33,0,-0.07,0.11
17895657,7.33,-7.13,0.34,-0.01,-0.09,0.1
17895682,7.16,-6.93,0.39,0,-0.07,0.09
17895816,7.24,-6.92,0.48,0.02,-0.07,0.09
17895840,7.19,-6.86,0.56,0.04,-0.04,0.09
17895865,7.45,-7,0.47,0.03,-0.05,0.08
17895890,7.48,-7.12,0.46,0.02,-0.06,0.08
17895916,7.45,-7.19,0.44,0.02,-0.05,0.08
17895941,7.48,-7.06,0.45,0.02,-0.06,0.07
17895966,7.47,-7.09,0.4,0.02,-0.06,0.07
17895994,7.6,-7.17,0.51,0.03,-0.05,0.07
17896015,7.61,-7.23,0.42,0.02,-0.06,0.08
17896040,7.42,-7.11,0.41,0.01,-0.08,0.08
17896065,7.25,-6.77,0.48,0.01,-0.07,0.07
17896090,7.35,-6.89,0.35,0.03,-0.05,0.08
17896116,7.05,-6.73,0.39,0.02,-0.06,0.08
17896140,7.07,-6.59,0.32,0.01,-0.05,0.08
17896165,7.08,-6.56,0.29,0.02,-0.05,0.08
17896190,6.88,-6.48,0.3,0.02,-0.04,0.08
17896216,6.68,-6.29,0.3,0.03,-0.05,0.09
17896244,6.85,-6.35,0.22,0.03,-0.05,0.09
17896265,6.93,-6.41,0.27,0.02,-0.05,0.08
17896290,6.87,-6.43,0.32,0.02,-0.05,0.08
17896316,6.75,-6.41,0.27,0.03,-0.06,0.08
17896340,6.77,-6.47,0.31,0.02,-0.06,0.08
17896365,6.84,-6.49,0.33,0.03,-0.07,0.07
17896393,7.16,-6.81,0.23,0.03,-0.06,0.07
17896418,7.17,-7.07,0.27,0.02,-0.08,0.08
17896443,7.1,-7.05,0.27,0.02,-0.08,0.08
17896468,7.04,-6.97,0.26,0.04,-0.07,0.08
17896493,7.18,-7.12,0.32,0.06,-0.06,0.07
17896518,7.25,-7.19,0.28,0.05,-0.06,0.06
17896543,7.08,-7.13,0.16,0.03,-0.07,0.06
17896568,7.04,-7.16,0.22,0.04,-0.07,0.05
17896593,7.34,-7.18,0.22,0.05,-0.06,0.05
17896619,7.45,-7.38,0.22,0.05,-0.05,0.04
17896644,7.35,-7.44,0.2,0.06,-0.05,0.04
17896668,7.08,-7.29,0.17,0.07,-0.05,0.04
17896693,7.13,-7.29,0.19,0.07,-0.04,0.03
17896852,7.23,-7.41,0.29,0.09,-0.02,0.03
17896876,7.33,-7.34,0.25,0.07,-0.05,0.03
17896901,7.66,-7.42,0.26,0.08,-0.05,0.02
17896926,7.63,-7.46,0.44,0.08,-0.04,0.02
17896951,7.45,-7.33,0.39,0.07,-0.03,0.02
17896976,7.54,-7.24,0.44,0.08,-0.03,0.02
17897002,7.57,-7.26,0.51,0.08,-0.04,0.02
17897027,7.5,-7.29,0.4,0.07,-0.04,0.02
17897051,7.39,-7.1,0.42,0.07,-0.04,0.02
17897076,7.41,-7,0.51,0.07,-0.04,0.03
17897101,7.64,-7.29,0.48,0.07,-0.02,0.04
17897130,7.55,-7.19,0.36,0.05,-0.05,0.03
17897154,7.28,-6.9,0.46,0.05,-0.05,0.03
17897180,7.38,-7.04,0.45,0.06,-0.03,0.04
17897204,7.5,-7.23,0.37,0.06,-0.05,0.04
17897229,7.53,-7.31,0.43,0.05,-0.07,0.04
17897255,7.48,-7.17,0.49,0.05,-0.06,0.03
17897279,7.25,-7.09,0.38,0.04,-0.06,0.04
17897304,7.32,-6.96,0.38,0.04,-0.07,0.04
17897329,7.54,-7.1,0.33,0.04,-0.07,0.04
17897355,7.43,-7.23,0.39,0.04,-0.07,0.03
17897379,7.47,-7.19,0.39,0.05,-0.06,0.02
17897404,7.65,-7.21,0.41,0.06,-0.04,0.02
17897429,7.64,-7.26,0.41,0.06,-0.04,0.02
17897454,7.46,-7.04,0.37,0.05,-0.04,0.02
17897480,7.5,-7.02,0.38,0.05,-0.03,0.02
17897505,7.67,-7.08,0.48,0.06,-0.04,0.02
17897529,7.79,-7.22,0.48,0.05,-0.04,0.02
17897554,7.74,-7.22,0.45,0.04,-0.05,0.03
17897580,7.65,-7.04,0.53,0.05,-0.04,0.03
17897605,7.69,-7.08,0.57,0.06,-0.03,0.04
17897630,7.75,-7.26,0.51,0.06,-0.03,0.05
17897655,7.78,-7.25,0.52,0.03,-0.06,0.06
17897679,7.74,-7.14,0.56,0.03,-0.05,0.05
17897704,7.67,-7.2,0.64,0.05,-0.02,0.05
17897729,7.88,-7.29,0.51,0.05,-0.03,0.05
17897754,7.71,-7.18,0.45,0.04,-0.05,0.06
17897892,7.82,-7.42,0.39,0.03,-0.04,0.07
17897917,7.56,-7.32,0.46,0.01,-0.06,0.08
17897941,7.59,-7.22,0.42,0.02,-0.05,0.07
17897966,7.82,-7.51,0.31,0.02,-0.04,0.07
17897992,7.42,-7.16,0.33,0.01,-0.06,0.06
17898016,7.31,-6.91,0.4,0.03,-0.03,0.06
17898041,7.49,-7.14,0.33,0.04,-0.03,0.07
17898066,7.27,-7.16,0.25,0.01,-0.05,0.08
17898091,7.34,-7.15,0.19,0,-0.06,0.07
17898116,7.69,-7.4,0.2,0.03,-0.04,0.06
17898141,7.71,-7.52,0.35,0.05,-0.04,0.05
17898166,7.55,-7.48,0.31,0.04,-0.03,0.04
17898191,7.53,-7.36,0.31,0.05,-0.03,0.04
17898216,7.5,-7.23,0.4,0.06,-0.03,0.03
17898242,7.71,-7.43,0.42,0.08,-0.01,0.02
17898267,7.8,-7.66,0.35,0.08,-0.02,0.03
17898291,7.57,-7.26,0.41,0.07,-0.04,0.01
17898316,7.49,-7.06,0.43,0.08,-0.01,0
17898341,7.53,-7.09,0.44,0.08,0,0
17898366,7.73,-7.23,0.4,0.08,-0.02,0
17898392,7.54,-7.18,0.37,0.07,-0.02,0.01
17898416,7.57,-7.28,0.39,0.06,-0.01,0.02
17898441,7.59,-7.16,0.34,0.06,-0.03,0.02
17898467,7.47,-7.03,0.49,0.07,-0.02,0.02
17898492,7.61,-7.26,0.52,0.07,0,0.02
17898516,7.59,-7.44,0.39,0.05,-0.02,0.04
17898541,7.21,-7.02,0.3,0.03,-0.06,0.05
17898566,7.32,-6.88,0.45,0.04,-0.03,0.03
17898591,7.6,-7.21,0.48,0.06,-0.02,0.04
17898617,7.33,-7.33,0.25,0.01,-0.05,0.07
17898641,7.1,-6.98,0.22,0,-0.06,0.08
17898666,7.14,-6.8,0.33,0.03,-0.05,0.07
17898692,7.23,-7.01,0.26,0.02,-0.05,0.08
17898830,6.99,-7.07,0.05,0.03,-0.05,0.08
17898854,6.87,-6.96,0.07,0.02,-0.06,0.08
17898880,6.76,-6.8,0.14,0.03,-0.07,0.07
17898904,6.96,-7.01,0.1,0.05,-0.05,0.06
17898929,7.1,-7.07,0.06,0.06,-0.05,0.04
17898954,6.99,-7.04,0.12,0.06,-0.05,0.03
17898980,6.82,-6.94,0.11,0.08,-0.03,0.03
17899005,6.97,-6.86,0.17,0.07,-0.05,0.02
17899029,7.03,-6.96,0.24,0.08,-0.03,0.01
17899054,6.97,-7.03,0.17,0.08,-0.03,0.02
17899079,7.04,-7.05,0.19,0.07,-0.04,0.01
17899104,7.14,-6.97,0.3,0.07,-0.04,0
17899129,7.12,-7.16,0.31,0.07,-0.03,0.02
17899154,7.14,-7.09,0.27,0.06,-0.05,0.02
17899180,7.33,-7.21,0.3,0.07,-0.05,0.02
17899205,7.33,-7.34,0.31,0.06,-0.06,0.03
17899229,7.27,-7.35,0.33,0.05,-0.06,0.03
17899254,7.36,-7.31,0.33,0.05,-0.06,0.03
17899279,7.36,-7.36,0.33,0.06,-0.05,0.03
17899304,7.51,-7.46,0.39,0.06,-0.05,0.04
17899329,7.66,-7.56,0.34,0.06,-0.06,0.04
17899355,7.71,-7.66,0.41,0.05,-0.05,0.04
17899379,7.84,-7.8,0.42,0.04,-0.06,0.05
17899404,7.81,-7.83,0.38,0.04,-0.07,0.05
17899429,7.8,-7.72,0.42,0.05,-0.06,0.05
17899455,7.78,-7.81,0.46,0.06,-0.04,0.05
17899480,7.71,-7.77,0.36,0.04,-0.06,0.06
17899504,7.78,-7.86,0.46,0.04,-0.05,0.06
17899529,7.94,-7.89,0.46,0.04,-0.06,0.05
17899555,7.78,-7.87,0.37,0.03,-0.05,0.05
17899583,7.59,-7.72,0.45,0.04,-0.04,0.05
17899609,7.78,-7.88,0.4,0.05,-0.05,0.06
17899633,7.68,-7.7,0.34,0.03,-0.07,0.05
17899659,7.58,-7.57,0.49,0.04,-0.05,0.03
17899683,7.5,-7.36,0.53,0.06,-0.03,0.03
17899708,7.28,-7.31,0.3,0.06,-0.04,0.04
17899733,7.43,-7.25,0.37,0.05,-0.06,0.03
17899880,7.07,-6.58,0.37,0.08,-0.03,0.01
17899904,6.97,-6.56,0.35,0.05,-0.04,0.02
17899929,7.01,-6.48,0.41,0.05,-0.05,0.02
17899954,7.02,-6.54,0.36,0.06,-0.04,0.03
17899979,6.76,-6.4,0.3,0.04,-0.06,0.03
17900004,6.88,-6.37,0.37,0.03,-0.05,0.03
17900029,6.9,-6.48,0.31,0.04,-0.06,0.04
17900054,6.86,-6.56,0.24,0.02,-0.07,0.04
17900079,6.92,-6.58,0.23,0.02,-0.07,0.04
17900104,6.96,-6.51,0.23,0.03,-0.08,0.03
17900129,7.08,-6.73,0.34,0.04,-0.07,0.03
17900154,7.11,-6.84,0.25,0.03,-0.06,0.04
17900179,7.06,-6.82,0.27,0.03,-0.07,0.04
17900205,7.24,-6.94,0.36,0.04,-0.06,0.04
17900230,7.17,-7.02,0.27,0.03,-0.06,0.05
17900254,7.02,-6.97,0.19,0.02,-0.09,0.05
17900279,7.16,-6.93,0.37,0.03,-0.06,0.03
17900305,7.41,-7.28,0.26,0.03,-0.05,0.05
17900329,7.35,-7.33,0.17,0.02,-0.09,0.05
17900354,7.42,-7.23,0.32,0.03,-0.06,0.03
17900379,7.89,-7.7,0.29,0.06,-0.04,0.04
17900405,7.67,-7.8,0.28,0.05,-0.06,0.05
17900429,7.54,-7.58,0.39,0.04,-0.06,0.03
17900454,7.86,-7.72,0.38,0.06,-0.04,0.03
17900479,7.68,-7.72,0.38,0.05,-0.06,0.03
17900505,7.76,-7.69,0.43,0.05,-0.06,0.02
17900529,7.87,-7.61,0.39,0.06,-0.04,0.01
17900554,7.78,-7.57,0.44,0.06,-0.03,0.01
17900579,7.78,-7.45,0.42,0.08,-0.03,0.01
17900604,7.88,-7.6,0.36,0.07,-0.03,0.02
17900629,7.62,-7.37,0.41,0.07,-0.04,0.02
17900654,7.45,-7.2,0.53,0.07,-0.03,0.02
17900679,7.66,-7.3,0.44,0.07,-0.03,0.03
17900821,7.47,-7.12,0.46,0.04,-0.05,0.05
17900842,7.61,-7.25,0.46,0.04,-0.05,0.06
17900867,7.42,-7.29,0.3,0.02,-0.06,0.06
17900891,7.18,-6.99,0.4,0.04,-0.05,0.05
17900916,7.32,-6.94,0.42,0.06,-0.05,0.04
17900941,7.3,-7.11,0.27,0.05,-0.04,0.05
17900967,7.21,-7.09,0.25,0.02,-0.05,0.05
17900992,7.42,-6.98,0.33,0.04,-0.05,0.03
17901016,7.26,-7.12,0.21,0.05,-0.04,0.04
17901041,7.1,-6.94,0.26,0.04,-0.05,0.03
17901067,7.26,-6.83,0.39,0.06,-0.03,0.02
17901092,7.31,-7.12,0.3,0.06,-0.03,0.03
17901116,7.15,-6.97,0.25,0.04,-0.05,0.03
17901142,7.23,-6.91,0.34,0.05,-0.04,0.03
17901167,7.28,-7.12,0.32,0.06,-0.04,0.03
17901191,7.13,-6.93,0.36,0.06,-0.06,0.02
17901216,7.24,-6.82,0.31,0.07,-0.04,0.01
17901242,7.32,-6.9,0.31,0.07,-0.04,0
17901267,7.37,-6.91,0.4,0.07,-0.03,0
17901291,7.33,-6.9,0.32,0.08,-0.03,0.01
17901316,7.28,-6.97,0.32,0.07,-0.04,0.02
17901341,7.16,-6.7,0.45,0.08,-0.04,0.01
17901366,7.21,-6.81,0.36,0.08,-0.02,0.02
17901391,7.25,-6.91,0.29,0.06,-0.05,0.02
17901416,7.21,-6.79,0.33,0.06,-0.05,0.02
17901442,7.1,-6.73,0.22,0.07,-0.04,0.03
17901466,6.98,-6.67,0.35,0.07,-0.04,0.03
17901491,7.05,-6.7,0.23,0.05,-0.05,0.05
17901516,6.91,-6.61,0.17,0.03,-0.06,0.06
17901542,7,-6.61,0.31,0.04,-0.06,0.05
17901566,7.17,-6.86,0.3,0.05,-0.05,0.06
17901591,6.91,-6.78,0.25,0.04,-0.07,0.06
17901616,6.97,-6.65,0.28,0.04,-0.05,0.06
17901641,7.21,-6.81,0.23,0.05,-0.07,0.06
17901666,7.11,-6.91,0.24,0.03,-0.07,0.06
17901691,6.92,-6.73,0.27,0.03,-0.06,0.05
17901716,7.03,-6.68,0.22,0.04,-0.05,0.05
17901856,7.28,-6.78,0.39,0.07,-0.03,0.05
17901881,7.62,-7.15,0.35,0.06,-0.04,0.06
17901905,7.48,-7.16,0.31,0.03,-0.07,0.06
17901930,7.24,-6.96,0.39,0.04,-0.06,0.05
17901956,7.34,-6.82,0.37,0.05,-0.04,0.06
17901981,7.41,-6.92,0.38,0.05,-0.03,0.06
17902006,7.5,-7.24,0.31,0.06,-0.03,0.06
17902030,7.65,-7.42,0.36,0.04,-0.04,0.06
17902056,7.65,-7.24,0.47,0.03,-0.05,0.06
17902080,7.49,-7.25,0.42,0.04,-0.03,0.06
17902106,7.49,-7.23,0.38,0.04,-0.03,0.06
17902131,7.67,-7.26,0.41,0.05,-0.05,0.05
17902155,7.56,-7.3,0.48,0.04,-0.04,0.04
17902180,7.57,-7.36,0.46,0.04,-0.04,0.05
17902205,7.32,-7.06,0.44,0.04,-0.05,0.03
17902231,7.12,-6.74,0.54,0.05,-0.02,0.02
17902256,7.31,-6.8,0.47,0.06,-0.01,0.02
17902289,7.08,-6.71,0.4,0.04,-0.04,0.01
17902312,7.17,-6.6,0.46,0.05,-0.02,0.01
17902337,7.34,-6.64,0.44,0.06,-0.02,0
17902362,7.29,-6.73,0.54,0.06,-0.01,0
17902387,7.41,-6.74,0.45,0.07,-0.02,0.01
17902412,7.43,-6.69,0.57,0.06,-0.03,0
17902437,7.65,-6.88,0.74,0.07,-0.01,0.01
17902462,7.86,-7.27,0.75,0.07,0,0.03
17902487,8.19,-7.6,0.62,0.05,-0.04,0.04
17902512,7.89,-7.26,0.8,0.04,-0.06,0.03
17902538,7.58,-6.91,0.79,0.05,-0.03,0.02
17902562,7.56,-6.72,0.82,0.05,-0.03,0.02
17902587,7.88,-6.86,0.88,0.05,-0.03,0.02
17902612,7.8,-7.03,0.74,0.05,-0.04,0.05
17902637,7.52,-6.76,0.65,0.01,-0.06,0.06
17902662,7.31,-6.36,0.66,0.01,-0.05,0.05
17902687,7.51,-6.48,0.69,0.04,-0.03,0.05
17902712,7.7,-6.72,0.66,0.05,-0.03,0.05
17902737,7.53,-6.69,0.59,0.03,-0.04,0.05
17902898,7.33,-6.65,0.58,-0.03,-0.05,0.1
17902922,7.85,-7.07,0.63,0,-0.03,0.11
17902948,8.05,-7.56,0.58,-0.02,-0.05,0.14
17902973,7.58,-7.29,0.59,-0.06,-0.07,0.16
17902998,7.7,-7.27,0.53,-0.07,-0.07,0.16
17903028,7.9,-7.51,0.61,-0.05,-0.09,0.15
17903048,7.83,-7.48,0.71,-0.05,-0.08,0.14
17903072,8.04,-7.67,0.56,-0.05,-0.06,0.14
17903097,8.04,-7.76,0.49,-0.06,-0.06,0.14
17903122,7.77,-7.58,0.41,-0.06,-0.07,0.14
17903147,7.66,-7.31,0.48,-0.03,-0.07,0.12
17903172,7.93,-7.64,0.5,-0.02,-0.04,0.11
17903197,7.97,-7.87,0.37,-0.04,-0.05,0.12
17903222,7.78,-7.75,0.27,-0.04,-0.06,0.11
17903247,7.76,-7.55,0.29,-0.01,-0.04,0.1
17903272,7.64,-7.44,0.39,0,-0.03,0.09
17903298,7.88,-7.8,0.34,0,-0.03,0.08
17903322,7.67,-7.67,0.28,0.01,-0.02,0.07
17903347,7.57,-7.51,0.2,0,-0.02,0.07
17903372,7.68,-7.51,0.32,0.02,-0.03,0.06
17903397,7.61,-7.41,0.36,0.04,0,0.05
17903422,7.52,-7.49,0.22,0.03,0,0.06
17903447,7.54,-7.63,0.18,0.02,-0.03,0.07
17903472,7.41,-7.33,0.22,0.02,-0.03,0.05
17903497,7.28,-7.08,0.25,0.04,-0.01,0.04
17903522,7.34,-7.2,0.36,0.05,0.01,0.03
17903547,7.38,-7.42,0.17,0.03,0,0.05
17903572,7.18,-7.28,0.04,0.03,-0.03,0.06
17903597,7.08,-6.99,0.16,0.03,-0.03,0.05
17903622,7.36,-7.12,0.24,0.04,0,0.03
17903647,7.11,-7.24,0.09,0.02,-0.01,0.04
17903672,7.08,-7.2,0.12,0.01,-0.03,0.05
17903697,7.29,-7.24,0.18,0.03,-0.03,0.04
17903836,7,-7.14,0.03,0.03,-0.05,0.05
17903860,6.85,-7.1,-0.03,0.04,-0.03,0.04
17903885,6.87,-7.21,0.02,0.04,-0.03,0.05
17903910,7.02,-7.31,0.03,0.04,-0.05,0.05
17903936,6.98,-7.2,-0.05,0.04,-0.05,0.04
17903960,6.92,-7.2,-0.02,0.05,-0.03,0.03
17903985,6.8,-7.11,0.03,0.06,-0.02,0.03
17904011,6.86,-7.21,-0.03,0.06,-0.03,0.04
17904035,6.94,-7.31,-0.1,0.06,-0.04,0.03
17904060,6.8,-7.2,-0.05,0.06,-0.04,0.02
17904085,6.87,-7.26,0.03,0.08,-0.02,0.01
17904111,7,-7.37,-0.03,0.08,-0.03,0.01
17904136,6.89,-7.3,-0.04,0.07,-0.04,0
17904160,6.86,-7.22,0.05,0.07,-0.03,0
17904185,7.04,-7.29,0.04,0.08,-0.04,-0.01
17904211,7.1,-7.44,-0.02,0.08,-0.03,0
17904236,7.05,-7.2,0.07,0.07,-0.05,-0.01
17904260,7.3,-7.45,-0.02,0.08,-0.03,0
17904285,7.23,-7.28,0.01,0.08,-0.04,0
17904311,7.08,-7.14,0.1,0.07,-0.04,0
17904336,7.07,-7.17,0.17,0.08,-0.02,0
17904360,7.27,-7.4,0.11,0.08,-0.02,0.02
17904385,7.33,-7.55,0.04,0.05,-0.06,0.04
17904410,7.27,-7.48,0.14,0.04,-0.07,0.04
17904436,7,-7.16,0.21,0.05,-0.04,0.03
17904460,7.19,-7.33,0.1,0.05,-0.03,0.06
17904485,7.26,-7.52,-0.02,0.04,-0.07,0.06
17904510,7,-7.17,0.05,0.03,-0.08,0.05
17904536,7.18,-7.21,0.14,0.04,-0.06,0.05
17904560,7.22,-7.45,0.12,0.04,-0.06,0.06
17904585,7.15,-7.53,-0.04,0.04,-0.07,0.06
17904610,7.15,-7.36,0.06,0.04,-0.07,0.06
17904635,7.17,-7.23,0.14,0.06,-0.06,0.04
17904660,7.06,-7.18,0.14,0.06,-0.04,0.02
17904685,7.06,-7.32,-0.03,0.05,-0.05,0.04
17904710,7.14,-7.23,0.05,0.05,-0.07,0.03
17904743,7.16,-7.15,0.21,0.08,-0.04,0.02
17904872,7.13,-7.07,0,0.05,-0.05,0.04
17904896,7.14,-7.02,0.07,0.06,-0.05,0.04
17904921,7.09,-7.17,0.19,0.07,-0.04,0.04
17904947,7.12,-7.21,0.09,0.06,-0.06,0.05
17904972,7.43,-7.45,0.14,0.06,-0.06,0.05
17904996,7.4,-7.44,0.19,0.05,-0.08,0.04
17905021,7.38,-7.56,0.08,0.04,-0.08,0.05
17905046,7.48,-7.45,0.21,0.06,-0.07,0.03
17905071,7.54,-7.63,0.12,0.06,-0.05,0.03
17905097,7.56,-7.79,-0.01,0.04,-0.08,0.04
17905121,7.61,-7.64,0.16,0.04,-0.07,0.03
17905146,7.62,-7.59,0.19,0.08,-0.06,0.03
17905171,7.69,-7.91,0.12,0.07,-0.04,0.05
17905196,7.54,-7.78,0.13,0.04,-0.06,0.04
17905221,7.57,-7.68,0.01,0.06,-0.06,0.04
17905246,7.44,-7.61,0.04,0.06,-0.05,0.04
17905271,7.26,-7.46,0.03,0.06,-0.04,0.05
17905296,6.97,-7.17,-0.04,0.06,-0.05,0.05
17905321,6.89,-6.95,-0.05,0.06,-0.04,0.05
17905346,6.94,-6.9,0,0.07,-0.05,0.06
17905371,6.86,-6.87,0.04,0.08,-0.04,0.05
17905397,6.98,-7.11,0.03,0.07,-0.03,0.06
17905421,6.95,-7.07,-0.01,0.06,-0.05,0.06
17905446,7.13,-7.05,0.16,0.09,-0.05,0.04
17905475,7.3,-7.26,0.08,0.09,-0.03,0.03
17905500,6.91,-7.07,0.11,0.07,-0.05,0.03
17905525,7.11,-7.05,0.26,0.08,-0.05,0.03
17905549,7.68,-7.43,0.23,0.09,-0.05,0.03
17905574,7.49,-7.34,0.24,0.07,-0.06,0.02
17905600,7.29,-7.18,0.28,0.06,-0.06,0.02
17905625,7.31,-7.05,0.24,0.08,-0.05,0.03
17905649,7.56,-7.18,0.38,0.09,-0.05,0.04
17905674,7.86,-7.5,0.42,0.08,-0.06,0.05
17905808,6.89,-6.9,0.05,0,-0.09,0.1
17905832,6.6,-6.46,0.16,0,-0.09,0.11
17905857,6.89,-6.34,0.24,0.04,-0.08,0.09
17905883,6.96,-6.53,0.26,0.05,-0.06,0.08
17905918,6.88,-6.68,0.08,0.02,-0.07,0.08
17905932,7.04,-6.59,0.1,0.03,-0.09,0.07
17905957,6.87,-6.37,0.32,0.06,-0.07,0.07
17905982,6.91,-6.48,0.26,0.06,-0.05,0.06
17906007,7.08,-6.53,0.13,0.05,-0.08,0.06
17906032,7.07,-6.48,0.2,0.04,-0.08,0.06
17906057,7.05,-6.49,0.36,0.05,-0.07,0.06
17906082,7.19,-6.5,0.37,0.05,-0.07,0.05
17906107,7.38,-6.68,0.3,0.04,-0.06,0.06
17906132,7.46,-6.81,0.38,0.05,-0.06,0.07
17906161,7.39,-6.79,0.39,0.04,-0.08,0.08
17906183,7.49,-6.86,0.53,0.05,-0.08,0.08
17906210,7.58,-6.95,0.66,0.05,-0.06,0.08
17906235,7.73,-7.07,0.39,0.02,-0.07,0.09
17906261,7.69,-6.95,0.46,0,-0.1,0.08
17906285,7.65,-6.95,0.63,0.03,-0.08,0.08
17906310,7.9,-7.28,0.59,0.04,-0.07,0.09
17906335,7.69,-7.17,0.47,0.02,-0.09,0.09
17906360,7.55,-7.04,0.64,0.03,-0.06,0.09
17906385,7.45,-7.08,0.46,0.04,-0.06,0.09
17906410,7.33,-7.13,0.45,0.02,-0.07,0.09
17906436,7.48,-7.14,0.37,0.02,-0.07,0.07
17906461,7.39,-7.01,0.37,0.03,-0.07,0.06
17906486,7.38,-7.06,0.27,0.02,-0.06,0.05
17906511,7.27,-6.88,0.25,0.04,-0.05,0.04
17906537,7.22,-6.78,0.29,0.05,-0.04,0.04
17906562,7.38,-6.99,0.21,0.05,-0.03,0.04
17906586,7.22,-6.94,0.2,0.05,-0.04,0.05
17906611,7.44,-7.07,0.31,0.05,-0.03,0.05
17906637,7.57,-7.19,0.27,0.06,-0.04,0.04
17906661,7.37,-7.05,0.43,0.05,-0.03,0.04
17906686,7.48,-7.12,0.4,0.06,-0.03,0.05
17906711,7.79,-7.42,0.35,0.05,-0.04,0.05
17906847,7.83,-7.47,0.45,0.03,-0.06,0.06
17906872,7.76,-7.31,0.41,0.02,-0.06,0.06
17906896,7.53,-7.26,0.4,0.02,-0.05,0.06
17906921,7.43,-7.22,0.39,0.03,-0.04,0.07
17906947,7.7,-7.42,0.2,0.04,-0.06,0.08
17906971,7.46,-7.28,0.39,0.03,-0.05,0.07
17906997,7.04,-6.82,0.31,0.05,-0.02,0.05
17907022,7,-6.86,0.3,0.05,-0.01,0.05
17907046,7.35,-7.2,0.21,0.06,-0.03,0.05
17907071,7.4,-7.36,0.18,0.05,-0.04,0.03
17907097,7.4,-7.53,0.09,0.02,-0.04,0.03
17907121,7.56,-7.5,0.24,0.03,-0.05,0.02
17907146,7.8,-7.7,0.32,0.06,-0.02,0.02
17907172,7.72,-7.9,0.19,0.04,-0.04,0.04
17907197,7.7,-7.89,0.12,0.03,-0.05,0.04
17907222,7.71,-7.6,0.21,0.05,-0.07,0.02
17907247,7.37,-7.3,0.23,0.05,-0.03,0.01
17907273,7.22,-7.33,0.06,0.07,0,0.02
17907298,6.88,-6.95,-0.08,0.07,-0.03,0.02
17907322,6.6,-6.61,-0.02,0.07,-0.03,0
17907347,6.81,-6.75,0.05,0.08,0,0
17907372,6.87,-6.92,-0.23,0.06,-0.01,0.03
17907398,6.43,-6.49,-0.23,0.03,-0.04,0.05
17907423,6.26,-6.27,-0.09,0.06,-0.02,0.05
17907448,6.74,-6.7,-0.1,0.07,-0.01,0.08
17907472,6.95,-7.16,-0.13,0.04,-0.04,0.1
17907497,6.77,-7.31,-0.21,0.03,-0.07,0.09
17907522,6.54,-7.22,-0.14,0.08,-0.05,0.05
17907547,6.36,-7.18,-0.09,0.08,-0.05,0.04
17907572,6.4,-7.14,-0.15,0.08,-0.04,0.04
17907597,6.6,-7.14,-0.2,0.08,-0.04,0.01
17907622,6.64,-7.26,-0.14,0.1,-0.04,-0.01
17907647,6.8,-7.41,-0.05,0.11,-0.02,-0.02
17907673,7.07,-7.62,-0.09,0.12,-0.02,-0.03
17907697,6.86,-7.44,-0.06,0.12,-0.03,-0.04
17907723,6.96,-7.53,-0.07,0.13,0,-0.03
17907748,7.04,-7.42,-0.09,0.13,-0.02,-0.05
17907887,7.25,-7.49,0.17,0.15,-0.02,-0.06
17907911,7.36,-7.52,0.24,0.15,-0.01,-0.05
17907936,7.61,-7.81,0.17,0.14,-0.02,-0.04
17907961,7.41,-7.78,0.22,0.12,-0.04,-0.03
17907986,7.39,-7.6,0.42,0.13,-0.03,-0.05
17908011,7.64,-7.87,0.51,0.14,-0.03,-0.06
17908036,7.64,-7.87,0.49,0.12,-0.05,-0.05
17908062,7.51,-7.65,0.32,0.09,-0.05,-0.03
17908087,7.47,-7.51,0.36,0.09,-0.06,-0.02
17908111,7.44,-7.49,0.4,0.09,-0.07,-0.01
17908136,7.57,-7.59,0.47,0.08,-0.05,-0.01
17908161,7.43,-7.67,0.28,0.07,-0.06,0.01
17908186,7.1,-7.35,0.21,0.06,-0.07,0.02
17908211,7.11,-7.34,0.29,0.06,-0.08,0.04
17908236,7.48,-7.59,0.33,0.09,-0.09,0.04
17908261,7.34,-7.71,0.22,0.06,-0.06,0.05
17908286,7.04,-7.57,0.09,0.03,-0.07,0.05
17908311,6.95,-7.43,0.13,0.05,-0.1,0.04
17908336,7.13,-7.42,0.18,0.08,-0.09,0.02
17908362,7.24,-7.63,0.26,0.08,-0.07,0.01
17908387,7.4,-7.88,0.17,0.09,-0.08,0.02
17908411,7.33,-7.74,0.06,0.09,-0.1,0.01
17908436,7.18,-7.21,0.33,0.12,-0.07,-0.03
17908461,7.55,-7.42,0.4,0.16,-0.03,-0.05
17908486,7.72,-7.65,0.27,0.14,-0.04,-0.04
17908511,7.49,-7.48,0.36,0.12,-0.05,-0.02
17908540,7.57,-7.32,0.47,0.13,-0.05,-0.02
17908562,7.68,-7.27,0.62,0.13,-0.06,-0.02
17908587,7.91,-7.43,0.7,0.13,-0.04,-0.02
17908611,8.13,-7.65,0.63,0.12,-0.03,-0.01
17908636,7.97,-7.54,0.64,0.1,-0.06,-0.01
17908665,7.86,-7.28,0.8,0.11,-0.05,-0.02
17908686,7.94,-7.26,0.88,0.12,-0.05,-0.02
17908825,8.38,-7.27,1.07,0.09,-0.05,0.01
17908849,8.69,-7.45,1.05,0.1,-0.04,0.03
17908874,8.83,-7.63,1.01,0.08,-0.05,0.04
17908899,8.78,-7.67,1.12,0.07,-0.06,0.04
17908924,8.8,-7.69,1.26,0.06,-0.06,0.06
17908950,8.97,-7.75,1.18,0.04,-0.07,0.06
17908974,8.63,-7.59,1.25,0.03,-0.06,0.07
17909000,8.7,-7.49,1.18,0.03,-0.07,0.08
17909025,8.47,-7.23,1.2,0.01,-0.07,0.08
17909049,8.13,-7.03,1.13,0,-0.07,0.09
17909074,7.95,-6.87,1.07,0.01,-0.05,0.1
17909099,8.25,-7.18,0.91,0,-0.04,0.12
17909124,7.98,-7.08,0.76,-0.02,-0.06,0.13
17909149,7.41,-6.65,0.74,-0.03,-0.07,0.12
17909174,7.27,-6.47,0.64,-0.04,-0.06,0.13
17909199,7.19,-6.55,0.59,-0.04,-0.04,0.14
17909224,7.27,-6.79,0.54,-0.03,-0.04,0.15
17909249,7.58,-7.17,0.49,-0.04,-0.04,0.16
17909274,7.18,-7.01,0.35,-0.06,-0.06,0.15
17909299,6.76,-6.74,0.37,-0.05,-0.07,0.13
17909324,6.79,-6.79,0.36,-0.04,-0.08,0.12
17909350,7.1,-7.04,0.28,-0.04,-0.08,0.1
17909374,7.34,-7.21,0.25,-0.03,-0.08,0.07
17909402,7.55,-7.42,0.33,-0.02,-0.08,0.05
17909426,7.37,-7.36,0.34,0,-0.08,0.02
17909452,7.24,-7.26,0.26,0.02,-0.06,0.01
17909476,7.49,-7.17,0.31,0.04,-0.05,-0.02
17909501,7.52,-7.22,0.3,0.06,-0.03,-0.04
17909527,7.25,-7.08,0.29,0.07,-0.02,-0.05
17909552,7.13,-6.91,0.39,0.07,-0.01,-0.06
17909576,7.39,-6.88,0.37,0.08,-0.01,-0.07
17909601,7.55,-7.04,0.39,0.09,0.01,-0.06
17909626,7.44,-6.95,0.37,0.07,0,-0.06
17909652,7.63,-7.14,0.37,0.07,0,-0.04
17909677,7.96,-7.51,0.51,0.07,-0.01,0
17909702,8.45,-7.91,0.56,0.05,-0.02,0.03
17909726,8.38,-7.92,0.67,0.02,-0.03,0.06
17909860,8.49,-8.63,0.38,-0.08,-0.13,0.16
17909884,8.33,-8.48,0.51,-0.07,-0.14,0.14
17909909,8.7,-8.71,0.63,-0.03,-0.08,0.13
17909934,8.99,-9.03,0.51,-0.02,-0.08,0.14
17909960,8.68,-8.76,0.33,-0.04,-0.09,0.12
17909984,8.38,-8.26,0.56,0.01,-0.07,0.08
17910010,8.57,-8.16,0.82,0.07,-0.01,0.05
17910035,8.42,-8.28,0.69,0.07,0,0.07
17910059,8.17,-8.22,0.55,0.02,-0.02,0.09
17910085,8.23,-7.84,0.56,0.02,-0.05,0.07
17910110,8.19,-7.58,0.81,0.04,-0.02,0.05
17910137,8.26,-7.86,0.68,0.04,0.01,0.07
17910162,8.25,-7.95,0.48,0,-0.02,0.1
17910187,7.88,-7.52,0.45,0,-0.07,0.11
17910213,7.72,-7.23,0.65,0.02,-0.03,0.09
17910238,7.87,-7.43,0.6,0.04,0,0.09
17910262,7.71,-7.44,0.32,-0.02,-0.04,0.12
17910287,7.47,-7.27,0.35,-0.03,-0.07,0.12
17910312,7.5,-7.02,0.55,0.04,-0.05,0.09
17910338,7.52,-7.2,0.51,0.03,-0.01,0.09
17910363,7.32,-7.33,0.23,-0.03,-0.05,0.12
17910388,7.09,-6.92,0.25,-0.02,-0.09,0.11
17910417,6.84,-6.57,0.36,0.01,-0.06,0.08
17910438,6.87,-6.89,0.35,0.01,-0.03,0.1
17910463,6.91,-7.07,0.17,-0.01,-0.06,0.11
17910489,6.84,-7.05,-0.05,-0.02,-0.07,0.12
17910514,6.49,-6.81,0.01,-0.02,-0.08,0.11
17910538,6.37,-6.65,0.1,0.01,-0.07,0.08
17910563,6.38,-6.44,0.13,0.04,-0.05,0.06
17910589,6.1,-6.38,-0.11,0.04,-0.05,0.05
17910614,5.97,-6.17,-0.08,0.04,-0.05,0.02
17910639,5.98,-5.82,0.03,0.07,-0.05,-0.02
17910663,6.04,-5.77,0.02,0.1,-0.02,-0.03
17910688,5.67,-5.54,-0.04,0.08,-0.02,-0.02
17910713,5.83,-5.49,-0.16,0.09,-0.03,-0.03
17910738,6.14,-5.57,-0.03,0.11,-0.05,-0.05
17910763,6.22,-5.5,0.22,0.12,-0.05,-0.06
17910900,6.51,-6.17,0.24,0.08,-0.06,0
17910924,6.48,-6.23,0.23,0.05,-0.09,0
17910949,6.55,-6.26,0.3,0.05,-0.11,0
17910974,6.72,-6.32,0.31,0.06,-0.1,-0.01
17910999,6.71,-6.37,0.37,0.07,-0.08,-0.01
17911024,6.68,-6.56,0.27,0.07,-0.09,0.02
17911049,6.53,-6.6,0.12,0.03,-0.13,0.03
17911074,6.6,-6.46,0.23,0.03,-0.13,0.02
17911099,6.84,-6.5,0.28,0.05,-0.09,0.02
17911128,6.73,-6.65,0.13,0.04,-0.09,0.03
17911149,6.59,-6.58,0.11,0.04,-0.1,0.03
17911174,6.58,-6.46,0.14,0.05,-0.1,0.02
17911199,6.86,-6.66,0.22,0.06,-0.07,0.02
17911224,7,-6.84,0.12,0.04,-0.08,0.03
17911250,6.71,-6.6,0.17,0.05,-0.08,0.02
17911275,6.68,-6.59,0.18,0.06,-0.08,0.02
17911299,6.94,-6.69,0.27,0.06,-0.06,0.03
17911324,7.01,-6.76,0.2,0.06,-0.07,0.04
17911349,7.02,-6.83,0.3,0.06,-0.07,0.02
17911374,7.21,-6.8,0.39,0.06,-0.08,0.02
17911399,7.09,-6.74,0.39,0.08,-0.06,0.02
17911424,7.11,-6.81,0.38,0.07,-0.06,0.03
17911450,7.65,-7.04,0.44,0.06,-0.08,0.04
17911475,7.73,-7.17,0.53,0.05,-0.09,0.04
17911499,7.6,-7.29,0.58,0.06,-0.08,0.05
17911524,7.59,-7.17,0.55,0.06,-0.08,0.05
17911549,7.57,-6.98,0.64,0.06,-0.08,0.05
17911575,7.6,-7.03,0.64,0.06,-0.06,0.05
17911600,7.68,-7.15,0.67,0.05,-0.06,0.06
17911624,7.72,-7.22,0.54,0.03,-0.08,0.07
17911649,7.61,-7.2,0.5,0.02,-0.1,0.07
17911675,7.61,-7.1,0.56,0.03,-0.09,0.06
17911700,7.65,-6.93,0.52,0.04,-0.09,0.05
17911837,7.27,-6.8,0.26,0.06,-0.05,0.04
17911861,7.28,-6.76,0.21,0.05,-0.06,0.04
17911886,7.35,-6.84,0.25,0.05,-0.07,0.04
17911911,7.39,-6.94,0.48,0.06,-0.04,0.03
17911937,7.58,-7.16,0.43,0.08,-0.03,0.04
17911961,7.76,-7.34,0.45,0.07,-0.05,0.04
17911986,7.6,-7.18,0.53,0.05,-0.06,0.02
17912011,7.68,-7.16,0.64,0.07,-0.04,0.01
17912036,7.67,-7.1,0.6,0.07,-0.03,0.02
17912061,7.72,-7.14,0.46,0.06,-0.04,0.03
17912086,7.94,-7.26,0.48,0.05,-0.05,0.04
17912111,7.99,-7.25,0.56,0.05,-0.05,0.05
17912136,7.81,-7.12,0.65,0.04,-0.04,0.06
17912161,7.88,-7.25,0.73,0.04,-0.03,0.08
17912186,8.04,-7.43,0.64,0.02,-0.05,0.11
17912211,8.13,-7.53,0.61,-0.01,-0.07,0.12
17912236,7.74,-7.3,0.69,-0.02,-0.08,0.14
17912261,7.75,-7.28,0.66,-0.03,-0.07,0.16
17912286,8.26,-7.61,0.56,-0.04,-0.08,0.18
17912311,8.15,-7.6,0.64,-0.04,-0.1,0.18
17912336,8.1,-7.63,0.59,-0.06,-0.1,0.19
17912361,8.19,-7.69,0.62,-0.05,-0.11,0.18
17912386,7.94,-7.48,0.68,-0.04,-0.09,0.19
17912412,8.42,-7.91,0.69,-0.03,-0.06,0.2
17912437,8.57,-8.18,0.47,-0.04,-0.1,0.2
17912461,8.18,-7.92,0.65,-0.05,-0.09,0.18
17912486,8.36,-7.85,0.74,0,-0.06,0.16
17912511,8.5,-7.92,0.7,0.01,-0.04,0.15
17912537,8.36,-7.96,0.62,-0.02,-0.04,0.14
17912561,8.7,-8.19,0.65,0.01,-0.04,0.12
17912587,8.77,-8.31,0.72,0.02,-0.04,0.11
17912612,8.28,-7.9,0.8,0.02,-0.04,0.1
17912637,8.43,-7.75,0.79,0.05,-0.03,0.08
17912661,8.19,-7.47,0.71,0.05,-0.03,0.07
17912686,8.02,-7.41,0.81,0.06,-0.02,0.06
17912712,7.97,-7.29,0.7,0.06,-0.02,0.06
17912737,7.78,-7.08,0.56,0.04,-0.03,0.06
17912871,6.98,-6.2,0.51,0.05,-0.01,0.06
17912896,6.85,-6.14,0.42,0.06,-0.02,0.07
17912920,6.66,-5.94,0.43,0.05,-0.03,0.07
17912945,6.65,-5.76,0.43,0.04,-0.03,0.05
17912971,6.66,-5.81,0.3,0.04,-0.02,0.05
17912996,6.33,-5.68,0.21,0.03,-0.03,0.06
17913021,6.34,-5.71,0.09,0.02,-0.06,0.07
17913045,6.54,-5.83,0.15,0.04,-0.05,0.06
17913071,6.81,-6.12,0.23,0.04,-0.04,0.05
17913096,6.81,-6.46,0.18,0.04,-0.05,0.05
17913121,6.49,-6.57,0,0.02,-0.05,0.06
17913145,6.31,-6.33,0.08,0.03,-0.07,0.04
17913171,6.71,-6.57,0.2,0.06,-0.06,0.02
17913195,6.86,-6.75,0.16,0.07,-0.05,0.01
17913221,6.73,-6.86,0.06,0.07,-0.03,0
17913246,6.84,-6.86,-0.04,0.07,-0.04,-0.02
17913271,6.8,-6.77,0.1,0.1,-0.05,-0.05
17913295,6.92,-6.7,0.29,0.13,-0.01,-0.07
17913320,7.24,-7.22,0.07,0.14,0.01,-0.06
17913345,7.34,-7.4,0.08,0.12,-0.03,-0.06
17913370,7.54,-7.5,0.36,0.12,-0.02,-0.08
17913396,7.88,-7.88,0.38,0.15,0,-0.07
17913421,7.89,-8,0.34,0.15,0,-0.07
17913445,8.07,-8.03,0.48,0.16,0.01,-0.08
17913470,8.05,-7.99,0.54,0.17,0,-0.1
17913495,7.97,-7.92,0.61,0.16,0.01,-0.1
17913521,8.58,-8.34,0.69,0.17,0.01,-0.09
17913549,8.95,-8.78,0.62,0.16,-0.01,-0.07
17913574,9.65,-9.4,0.64,0.13,0.01,-0.04
17913598,10.1,-9.69,0.55,0.11,0.01,-0.03
17913623,9.56,-9.31,0.68,0.11,-0.03,-0.06
17913648,9.46,-9.19,0.85,0.14,-0.03,-0.07
17913673,9.91,-9.67,1.01,0.16,0,-0.06
17913807,8.99,-8.78,0.41,0.08,0,0
17913832,8.57,-8.35,0.37,0.09,-0.02,0
17913856,8.59,-8.26,0.59,0.13,0,-0.01
17913881,8.83,-8.46,0.71,0.13,0.04,0.01
17913906,8.83,-8.63,0.36,0.1,0.04,0.02
17913932,8.25,-8.24,0.43,0.1,0.01,-0.01
17913957,8.3,-8.07,0.6,0.12,0.04,-0.01
17913981,8.5,-8.31,0.59,0.13,0.05,0.01
17914006,8.46,-8.32,0.38,0.11,0.03,0.01
17914031,7.9,-7.72,0.4,0.09,0,-0.02
17914056,7.43,-7.05,0.49,0.11,0.02,-0.05
17914081,7.25,-6.77,0.59,0.16,0.06,-0.05
17914106,7.65,-7.12,0.29,0.13,0.09,0
17914132,7.62,-7.16,-0.08,0.09,0.02,0.01
17914156,7.05,-6.48,0.25,0.1,-0.01,-0.04
17914181,6.98,-6.31,0.63,0.13,0.03,-0.04
17914206,6.97,-6.32,0.48,0.14,0.07,-0.02
17914232,7.07,-6.37,0.17,0.12,0.08,-0.01
17914256,7.12,-6.33,0.25,0.12,0.04,-0.01
17914281,6.82,-6.12,0.57,0.13,0.03,-0.03
17914310,6.78,-6.03,0.66,0.13,0.04,-0.03
17914334,7.03,-6.15,0.57,0.1,0.05,-0.01
17914359,6.86,-6.09,0.56,0.08,0.03,-0.01
17914384,7.1,-6.22,0.68,0.08,0.01,-0.02
17914409,7.31,-6.4,0.82,0.06,0,-0.01
17914434,7.23,-6.53,0.79,0.03,-0.01,0
17914459,7.2,-6.47,0.64,0.02,-0.02,0
17914484,7.27,-6.41,0.76,0,-0.04,-0.01
17914509,7.29,-6.41,0.94,-0.01,-0.04,-0.01
17914534,7.43,-6.52,0.8,0,-0.04,-0.01
17914561,7.22,-6.35,0.75,-0.03,-0.07,0
17914586,7.27,-6.39,0.79,-0.03,-0.08,0.01
17914611,7.49,-6.51,0.73,-0.03,-0.08,0.01
17914635,7.55,-6.59,0.61,-0.05,-0.08,0.03
17914660,7.45,-6.56,0.69,-0.05,-0.1,0.05
17914685,7.54,-6.63,0.62,-0.03,-0.1,0.06
17914711,7.4,-6.54,0.66,-0.05,-0.09,0.05
17914854,7.29,-6.57,0.38,-0.06,-0.07,0.09
17914878,7.6,-6.82,0.34,-0.06,-0.06,0.09
17914903,7.8,-7.02,0.28,-0.05,-0.07,0.1
17914928,7.7,-7.21,0.39,-0.06,-0.05,0.12
17914954,7.78,-7.4,0.3,-0.05,-0.05,0.13
17914979,7.68,-7.33,0.35,-0.05,-0.06,0.12
17915004,7.83,-7.47,0.55,-0.04,-0.04,0.12
17915028,8.04,-7.78,0.52,-0.03,-0.02,0.12
17915053,7.98,-7.97,0.42,-0.05,-0.05,0.14
17915078,7.85,-7.86,0.43,-0.06,-0.07,0.13
17915103,7.78,-7.76,0.57,-0.04,-0.07,0.12
17915128,7.68,-7.68,0.64,-0.03,-0.05,0.11
17915154,7.76,-7.84,0.44,-0.04,-0.04,0.12
17915178,7.86,-7.92,0.24,-0.04,-0.06,0.12
17915203,7.9,-8.09,0.25,-0.05,-0.07,0.12
17915228,8.33,-8.43,0.36,-0.03,-0.05,0.13
17915253,8.49,-8.51,0.31,-0.03,-0.04,0.13
17915279,8.36,-8.64,0.34,-0.04,-0.04,0.12
17915304,8.3,-8.72,0.35,-0.04,-0.05,0.12
17915329,8.06,-8.52,0.34,-0.02,-0.08,0.11
17915353,7.75,-8.35,0.42,-0.02,-0.07,0.1
17915378,7.88,-8.32,0.22,-0.04,-0.07,0.1
17915403,7.84,-8.21,0.22,-0.03,-0.07,0.1
17915428,7.94,-8.37,0.13,-0.02,-0.07,0.1
17915453,7.97,-8.42,0.03,-0.02,-0.07,0.1
17915478,8,-8.15,0.21,0,-0.07,0.07
17915503,7.82,-8.23,0.25,0.02,-0.03,0.07
17915528,7.75,-8.24,0.02,0.01,-0.04,0.07
17915553,7.72,-7.92,0.1,0.03,-0.06,0.05
17915578,7.76,-8.11,0.2,0.05,-0.02,0.04
17915604,7.84,-8.32,0.04,0.03,-0.01,0.06
17915629,7.77,-8.26,-0.09,0.02,-0.04,0.07
17915653,7.54,-8.01,0.14,0.04,-0.03,0.06
17915678,7.55,-7.96,0.24,0.06,0,0.05
17915703,7.93,-8.4,0.1,0.06,0,0.06
17915728,7.83,-8.49,0.03,0.03,-0.03,0.06
17915753,7.56,-8.16,0.05,0.04,-0.04,0.07
17915889,7.03,-7.37,0.33,0.05,-0.05,0.04
17915914,6.86,-7.17,0.24,0.05,-0.06,0.05
17915940,6.99,-7.05,0.11,0.03,-0.08,0.06
17915965,6.99,-7.02,-0.05,0.03,-0.09,0.07
17915990,6.91,-7.05,-0.09,0,-0.1,0.09
17916014,6.72,-6.91,-0.03,0,-0.1,0.11
17916039,6.63,-6.61,-0.05,0.03,-0.08,0.09
17916064,6.61,-6.66,0,0.05,-0.06,0.08
17916089,6.83,-7.16,-0.05,0.04,-0.06,0.09
17916114,7.13,-7.58,-0.08,0.03,-0.08,0.11
17916139,7.01,-7.47,-0.04,0.04,-0.09,0.09
17916168,7.01,-7.44,0.17,0.04,-0.07,0.08
17916190,6.96,-7.37,0.29,0.06,-0.07,0.06
17916214,7.13,-7.41,0.28,0.09,-0.06,0.04
17916239,7.34,-7.58,0.22,0.07,-0.08,0.03
17916264,7.33,-7.62,0.28,0.05,-0.09,0.03
17916289,7.13,-7.35,0.3,0.07,-0.1,0.01
17916314,7.31,-7.41,0.31,0.09,-0.07,-0.01
17916339,7.68,-7.63,0.05,0.07,-0.04,0
17916364,7.38,-7.32,-0.03,0.04,-0.07,0.01
17916389,7.16,-7.19,0.23,0.09,-0.07,0
17916414,7.52,-7.37,0.44,0.13,-0.04,0
17916439,7.55,-7.45,0.25,0.09,-0.03,0.02
17916465,7.3,-7.49,0.32,0.1,-0.05,0.02
17916490,7.02,-6.99,0.44,0.12,-0.08,-0.03
17916518,6.82,-6.73,0.64,0.11,-0.03,-0.03
17916539,6.9,-7.01,0.37,0.11,0,0
17916564,7.26,-7.27,-0.01,0.08,-0.06,0.01
17916589,7.07,-6.9,0.05,0.05,-0.1,0
17916614,6.63,-6.56,0.63,0.11,-0.04,-0.01
17916639,6.87,-6.89,0.42,0.13,-0.01,0.01
17916664,7.14,-7.14,0.05,0.07,-0.05,0.03
17916689,6.81,-6.93,0.18,0.06,-0.08,0.02
17916818,6.48,-6.3,-0.1,0.12,-0.08,-0.06
17916842,6.07,-5.88,0.16,0.14,-0.05,-0.08
17916867,6.59,-6.58,0.21,0.15,-0.02,-0.06
17916893,7.22,-7.17,-0.08,0.11,-0.03,-0.02
17916917,7.13,-7.26,-0.1,0.11,-0.03,0
17916942,7.35,-7.43,0.09,0.13,-0.02,0
17916967,7.46,-7.64,0.28,0.13,-0.02,0
17916993,7.21,-7.64,0.48,0.11,0,0
17917018,7.58,-8.03,0.38,0.11,-0.01,0.03
17917042,7.65,-7.93,0.39,0.09,-0.06,0.02
17917067,7.18,-7.64,0.55,0.08,-0.05,0.02
17917092,7.24,-7.59,0.52,0.09,-0.06,0.01
17917117,7.52,-7.61,0.58,0.08,-0.08,0
17917142,7.54,-7.67,0.57,0.07,-0.07,0.01
17917168,7.27,-7.47,0.45,0.06,-0.07,0.02
17917193,7.25,-7.22,0.46,0.06,-0.09,0.02
17917217,7.52,-7.25,0.41,0.07,-0.08,0.02
17917242,7.66,-7.37,0.45,0.08,-0.06,0.03
17917267,7.34,-7.23,0.27,0.06,-0.05,0.04
17917292,6.97,-6.84,0.29,0.05,-0.06,0.03
17917317,7,-6.77,0.42,0.09,-0.05,0.02
17917342,7.1,-6.7,0.34,0.1,-0.02,0.02
17917367,7.41,-6.95,0.29,0.1,-0.01,0.03
17917392,7.44,-7.1,0.45,0.09,-0.02,0.03
17917417,7.5,-7.27,0.45,0.08,-0.03,0.04
17917443,7.17,-6.85,0.49,0.07,-0.04,0.03
17917467,7.31,-6.87,0.75,0.1,-0.02,0.02
17917492,7.68,-7.16,0.69,0.1,-0.02,0.03
17917517,7.59,-7.18,0.69,0.08,-0.05,0.04
17917542,7.59,-7.1,0.78,0.07,-0.06,0.02
17917568,7.59,-7.05,0.76,0.08,-0.05,0.02
17917593,7.54,-6.94,0.8,0.06,-0.05,0.03
17917617,7.78,-7.05,0.79,0.07,-0.04,0.03
17917642,7.74,-6.97,0.75,0.06,-0.05,0.03
17917667,7.63,-6.96,0.88,0.05,-0.05,0.02
17917692,7.87,-7.1,0.84,0.06,-0.03,0.04
17917717,7.87,-7.18,0.78,0.05,-0.04,0.05
17917858,7.59,-6.88,0.62,0.03,-0.05,0.04
17917882,7.75,-7,0.71,0.04,-0.04,0.03
17917906,7.78,-7.09,0.56,0.03,-0.03,0.03
17917931,7.64,-7.13,0.45,0.02,-0.04,0.03
17917956,7.78,-7.2,0.65,0.04,-0.04,0.02
17917981,7.84,-7.35,0.66,0.06,-0.02,0.02
17918006,7.64,-7.55,0.6,0.05,0,0.03
17918032,7.56,-7.59,0.55,0.04,-0.01,0.04
17918057,7.55,-7.69,0.46,0.02,-0.03,0.07
17918085,7.36,-7.74,0.52,0,-0.06,0.08
17918106,7.4,-7.62,0.52,0,-0.06,0.07
17918131,7.21,-7.36,0.4,0,-0.05,0.06
17918156,7.03,-7.49,0.39,-0.01,-0.06,0.06
17918182,7.2,-7.46,0.36,0,-0.07,0.06
17918207,7.25,-7.49,0.22,0.01,-0.07,0.07
17918231,7.26,-7.58,0.2,0.02,-0.06,0.07
17918257,7.2,-7.68,0.2,0.03,-0.06,0.08
17918281,7.37,-7.56,0.14,0.04,-0.07,0.07
17918306,7.28,-7.71,0.17,0.05,-0.04,0.06
17918331,7.5,-7.77,0.12,0.06,0,0.05
17918356,7.45,-8.05,0.21,0.09,-0.01,0.05
17918381,7.32,-8.01,0.42,0.12,-0.02,0.02
17918406,7.37,-7.87,0.53,0.12,0.01,-0.03
17918431,7.24,-7.68,0.42,0.09,0.03,-0.04
17918456,7.3,-7.58,0.51,0.06,0.01,-0.05
17918483,7.85,-7.93,0.63,0.06,-0.02,-0.02
17918507,8.45,-8.64,0.68,0.07,-0.02,0.04
17918532,8.93,-8.95,0.64,0.06,-0.04,0.11
17918557,8.59,-8.44,0.74,0.04,-0.04,0.11
17918582,7.81,-8.22,1.08,0.07,0.02,0.11
17918607,8.06,-8.6,0.89,0.08,0.03,0.18
17918632,8.13,-8.7,0.66,0.01,-0.04,0.23
17918657,8.02,-8.96,0.71,-0.03,-0.09,0.23
17918682,8.43,-9.59,0.56,-0.05,-0.11,0.23
17918707,8.57,-9.55,0.65,-0.05,-0.1,0.23
17918733,8.55,-9.93,0.81,-0.04,-0.06,0.25
17918758,9.2,-10.24,0.56,-0.06,0,0.14
17918896,7.81,-9.4,0.4,-0.03,-0.01,0.08
17918919,7.98,-9.46,0.27,-0.02,-0.02,0.05
17918944,8.1,-9.64,0.1,0,-0.03,0.07
17918973,8.16,-9.86,0.02,0.04,-0.02,0.07
17918998,8.42,-10.17,0.13,0.07,-0.01,0.04
17919023,8.4,-10.05,0.23,0.05,0.03,0
17919049,8.27,-9.87,0.04,0.1,0.02,-0.03
17919074,7.78,-9.59,0.27,0.14,-0.01,-0.06
17919098,7.57,-9.36,0.31,0.14,-0.01,-0.08
17919123,7.8,-9.1,0.07,0.13,0,-0.09
17919148,7.48,-8.8,0.09,0.15,-0.01,-0.1
17919173,7.67,-9.18,0.08,0.17,0,-0.11
17919198,7.78,-9.16,-0.07,0.14,0.01,-0.1
17919224,8.02,-9.07,0.06,0.16,-0.01,-0.09
17919249,8.23,-9.25,0.23,0.15,-0.01,-0.06
17919278,8.29,-9.25,0.38,0.11,-0.03,-0.05
17919299,8.29,-8.96,0.35,0.08,-0.01,-0.06
17919324,8.76,-9.07,0.31,0.08,-0.02,-0.06
17919349,9.13,-9.25,0.68,0.05,-0.05,-0.05
17919374,9.22,-9.57,0.61,0.07,-0.05,-0.03
17919399,9.14,-9.34,0.64,0.09,-0.06,-0.03
17919424,9.06,-9.07,0.75,0.12,-0.07,-0.04
17919449,9.26,-9.22,0.7,0.12,-0.05,-0.05
17919474,9.18,-9.26,0.64,0.09,-0.08,-0.02
17919500,9.27,-9.36,0.68,0.08,-0.1,0.02
17919524,9.72,-9.6,0.87,0.09,-0.09,0.03
17919549,9.22,-9.23,1.02,0.03,-0.1,0.03
17919575,10.09,-9.75,0.69,0.09,-0.08,0.02
17919599,9.26,-8.97,0.59,0.12,-0.08,-0.02
17919624,8.96,-8.94,0.75,0.18,-0.1,0
17919649,8.96,-9.1,0.96,0.16,-0.11,0.01
17919674,9.05,-9.03,0.9,0.1,-0.16,0.08
17919827,8.83,-8.23,1.05,0.12,-0.12,0.01
17919852,8.73,-8.06,1.43,0.15,-0.09,-0.02
17919876,9.5,-8.68,1.19,0.13,-0.01,-0.01
